time,channel_1,channel_2,channel_3,channel_4,channel_5,channel_6,channel_7,channel_8,orientation_x,orientation_y,orientation_z,orientation_w,acceleration_x,acceleration_y,acceleration_z,gyroscope_x,gyroscope_y,gyroscope_z
0.005,-2.0,3.0,13.0,-7.0,-3.0,3.0,-1.0,1.0,-0.41546630859375,-0.3544921875,0.692626953125,0.47113037109375,-0.24853515625,-0.91015625,0.41162109375,0.0,0.8125,1.125
0.01,-2.0,8.0,-9.0,0.0,0.0,0.0,-2.0,-2.0
0.015,-2.0,-2.0,5.0,-2.0,-1.0,-3.0,-2.0,-2.0,-0.41552734375,-0.354248046875,0.69281005859375,0.4710693359375,-0.2490234375,-0.90380859375,0.40576171875,1.5,0.0,1.5
0.02,1.0,-6.0,-9.0,-2.0,5.0,-1.0,1.0,2.0,-0.41571044921875,-0.35406494140625,0.69293212890625,0.470703125,-0.248046875,-0.89794921875,0.41259765625,-1.0625,0.3125,0.875
0.025,1.0,-2.0,4.0,-1.0,0.0,1.0,-1.0,2.0,-0.41571044921875,-0.35406494140625,0.6929931640625,0.470703125,-0.25,-0.89892578125,0.4111328125,-0.3125,-0.0625,0.375
0.03,-2.0,-6.0,-3.0,-3.0,1.0,1.0,-1.0,-2.0,-0.41583251953125,-0.35418701171875,0.69287109375,0.470703125,-0.24755859375,-0.90234375,0.4130859375,-1.125,0.1875,-0.0625
0.035,-3.0,2.0,-5.0,-8.0,-2.0,-3.0,-2.0,0.0,-0.41583251953125,-0.35418701171875,0.69287109375,0.47064208984375,-0.2451171875,-0.900390625,0.40380859375,-0.9375,-0.4375,-0.125
0.04,-1.0,-2.0,-3.0,-7.0,-6.0,-2.0,1.0,-2.0,-0.41583251953125,-0.354248046875,0.69287109375,0.47064208984375,-0.24462890625,-0.89501953125,0.40283203125,-0.1875,-0.1875,0.375
0.045,0.0,3.0,3.0,0.0,-4.0,-2.0,-1.0,-2.0,-0.41595458984375,-0.35443115234375,0.6927490234375,0.47052001953125,-0.24658203125,-0.8984375,0.40087890625,-1.375,-0.25,0.1875
0.05,-2.0,-4.0,-9.0,7.0,2.0,0.0,-1.0,-3.0,-0.41619873046875,-0.35467529296875,0.692626953125,0.47039794921875,-0.24267578125,-0.91064453125,0.40771484375,-1.8125,0.375,0.4375
0.055,-3.0,2.0,1.0,-6.0,1.0,2.0,0.0,-1.0,-0.41632080078125,-0.35479736328125,0.69244384765625,0.47039794921875,-0.251953125,-0.90234375,0.41259765625,-0.9375,0.6875,0.5625
0.06,0.0,2.0,-1.0,1.0,-3.0,-2.0,-2.0,-1.0,-0.41656494140625,-0.35504150390625,0.6923828125,0.4700927734375,-0.24560546875,-0.9072265625,0.40966796875,-2.25,-0.0625,1.0
0.065,-2.0,-2.0,-6.0,2.0,1.0,0.0,1.0,-1.0
0.07,-2.0,-14.0,-13.0,-3.0,4.0,-1.0,1.0,0.0,-0.41668701171875,-0.3553466796875,0.69232177734375,0.46990966796875,-0.244140625,-0.91357421875,0.41015625,-2.0625,-0.75,0.4375
0.075,0.0,0.0,-3.0,-7.0,-5.0,-2.0,0.0,0.0,-0.4166259765625,-0.3553466796875,0.69232177734375,0.46990966796875,-0.24755859375,-0.91162109375,0.4189453125,-0.125,-0.4375,0.0625
0.08,3.0,1.0,0.0,4.0,1.0,0.0,0.0,5.0,-0.4166259765625,-0.3553466796875,0.69232177734375,0.46990966796875,-0.251953125,-0.908203125,0.4072265625,0.0,0.0,-0.6875
0.085,-2.0,1.0,6.0,4.0,3.0,2.0,-1.0,-2.0,-0.4161376953125,-0.35516357421875,0.69256591796875,0.47015380859375,-0.2490234375,-0.89208984375,0.41650390625,1.0625,-0.9375,-0.8125
0.09,0.0,-2.0,-10.0,-5.0,-2.0,-2.0,-1.0,-2.0,-0.4161376953125,-0.35516357421875,0.69256591796875,0.47015380859375,-0.2490234375,-0.90185546875,0.4150390625,-0.4375,-0.5625,-0.8125
0.095,-2.0,0.0,8.0,8.0,0.0,0.0,-1.0,-2.0,-0.4161376953125,-0.35516357421875,0.69256591796875,0.47015380859375,-0.2451171875,-0.90625,0.41748046875,-0.5,-0.5625,-0.5
0.1,-3.0,-1.0,4.0,-3.0,1.0,3.0,-3.0,-3.0,-0.41607666015625,-0.35516357421875,0.69256591796875,0.47021484375,-0.234375,-0.900390625,0.40869140625,0.5625,0.125,0.0
0.105,0.0,-4.0,-3.0,-1.0,-7.0,-7.0,-1.0,1.0,-0.41607666015625,-0.35516357421875,0.69256591796875,0.47021484375,-0.25244140625,-0.90380859375,0.41162109375,-1.0,0.5625,0.3125
0.11,-3.0,-4.0,-4.0,-3.0,-7.0,-6.0,-3.0,-1.0,-0.41632080078125,-0.35528564453125,0.6923828125,0.4700927734375,-0.25146484375,-0.91162109375,0.40283203125,-1.125,0.625,0.0625
0.115,1.0,-1.0,4.0,1.0,-2.0,-4.0,-1.0,0.0,-0.41644287109375,-0.355224609375,0.69219970703125,0.4703369140625,-0.2470703125,-0.91455078125,0.40576171875,0.5625,1.5,-0.9375
0.12,-1.0,-17.0,13.0,2.0,-5.0,-3.0,-2.0,-2.0,-0.41644287109375,-0.35504150390625,0.692138671875,0.47064208984375,-0.25634765625,-0.9052734375,0.41845703125,0.875,1.1875,-1.5
0.125,-2.0,-4.0,-13.0,0.0,-1.0,0.0,-1.0,0.0
0.13,-1.0,3.0,1.0,7.0,3.0,1.0,1.0,-1.0,-0.41644287109375,-0.35504150390625,0.692138671875,0.47064208984375,-0.2548828125,-0.89990234375,0.4072265625,-0.625,-0.0625,-0.8125
0.135,-1.0,2.0,8.0,1.0,-4.0,-3.0,-2.0,0.0,-0.4166259765625,-0.35528564453125,0.6920166015625,0.470458984375,-0.24658203125,-0.9052734375,0.39990234375,-1.5,-0.4375,0.125
0.14,-2.0,0.0,-8.0,-1.0,2.0,-1.0,-2.0,-2.0,-0.41680908203125,-0.35516357421875,0.69195556640625,0.47039794921875,-0.24853515625,-0.91259765625,0.404296875,0.1875,1.125,0.9375
0.145,-2.0,-1.0,-10.0,-5.0,-1.0,-2.0,-1.0,-1.0,-0.4169921875,-0.35504150390625,0.6920166015625,0.47027587890625,-0.251953125,-0.91064453125,0.40576171875,0.3125,0.4375,1.0625
0.15,-2.0,-1.0,-8.0,-4.0,0.0,3.0,2.0,-1.0,-0.4171142578125,-0.35491943359375,0.69207763671875,0.47015380859375,-0.24658203125,-0.90185546875,0.40283203125,0.25,0.5,1.1875
0.155,1.0,1.0,1.0,6.0,0.0,2.0,-1.0,0.0,-0.417236328125,-0.35491943359375,0.692138671875,0.469970703125,-0.24853515625,-0.90380859375,0.40625,-0.375,-0.25,1.4375
0.16,1.0,0.0,3.0,-3.0,-6.0,-1.0,-1.0,-4.0,-0.41741943359375,-0.35491943359375,0.69219970703125,0.46966552734375,-0.25244140625,-0.89990234375,0.4052734375,-1.125,-0.3125,1.375
0.165,0.0,0.0,-6.0,3.0,1.0,3.0,-1.0,1.0,-0.41754150390625,-0.35498046875,0.6922607421875,0.469482421875,-0.2529296875,-0.904296875,0.41162109375,-1.1875,-0.1875,0.9375
0.17,-1.0,-1.0,-2.0,-3.0,-2.0,-3.0,0.0,1.0,-0.41754150390625,-0.35498046875,0.6922607421875,0.46942138671875,-0.25732421875,-0.912109375,0.40625,-0.625,-0.625,0.0
0.175,-2.0,-3.0,-6.0,-4.0,-1.0,-2.0,-1.0,0.0,-0.4176025390625,-0.35498046875,0.6922607421875,0.46942138671875,-0.2548828125,-0.90283203125,0.39990234375,0.125,-0.6875,-0.625
0.18,-1.0,0.0,0.0,-1.0,-1.0,-4.0,-1.0,1.0
0.185,-2.0,-4.0,-14.0,-1.0,-2.0,-1.0,-1.0,1.0,-0.4168701171875,-0.355224609375,0.69244384765625,0.4696044921875,-0.25244140625,-0.89404296875,0.4140625,0.375,-2.25,-1.4375
0.19,0.0,-9.0,-9.0,-10.0,-5.0,-3.0,-2.0,-2.0,-0.4166259765625,-0.3555908203125,0.69244384765625,0.4696044921875,-0.25146484375,-0.9033203125,0.41455078125,-1.5,-1.9375,-1.625
0.195,-2.0,4.0,6.0,1.0,0.0,-3.0,-5.0,-6.0,-0.41632080078125,-0.35601806640625,0.6923828125,0.4696044921875,-0.24658203125,-0.90966796875,0.41064453125,-0.75,-2.0625,-1.6875
0.2,-1.0,5.0,1.0,-5.0,-7.0,-2.0,-3.0,2.0,-0.4158935546875,-0.356201171875,0.6923828125,0.46978759765625,-0.2353515625,-0.91455078125,0.40185546875,1.3125,-1.5625,-1.375
0.205,0.0,-11.0,3.0,-6.0,-5.0,-2.0,-1.0,0.0,-0.4156494140625,-0.35614013671875,0.6922607421875,0.47027587890625,-0.24853515625,-0.904296875,0.408203125,0.75,0.375,-1.375
0.21,-1.0,1.0,-4.0,-11.0,-5.0,-3.0,-3.0,-2.0,-0.4156494140625,-0.35614013671875,0.6922607421875,0.47027587890625,-0.24560546875,-0.90478515625,0.41259765625,-0.125,0.1875,-1.0
0.215,-1.0,-2.0,-9.0,2.0,-2.0,-4.0,0.0,-2.0,-0.415771484375,-0.35638427734375,0.69207763671875,0.47027587890625,-0.25341796875,-0.9169921875,0.40869140625,-1.1875,0.1875,-1.0
0.22,-1.0,-5.0,0.0,-4.0,0.0,-1.0,-1.0,-1.0,-0.415771484375,-0.3564453125,0.6920166015625,0.4703369140625,-0.25390625,-0.9091796875,0.40869140625,-0.3125,-0.375,-1.1875
0.225,-1.0,-4.0,-14.0,-17.0,0.0,2.0,1.0,-2.0,-0.4156494140625,-0.35662841796875,0.69195556640625,0.47039794921875,-0.25146484375,-0.90771484375,0.4140625,-0.5625,-0.6875,-1.4375
0.23,-1.0,1.0,2.0,1.0,-3.0,-2.0,-2.0,-1.0,-0.41552734375,-0.35693359375,0.6917724609375,0.470458984375,-0.2421875,-0.90576171875,0.4052734375,-1.0,-0.9375,-1.625
0.235,-1.0,-10.0,-3.0,2.0,2.0,1.0,-1.0,0.0,-0.415283203125,-0.35699462890625,0.6917724609375,0.470703125,-0.23681640625,-0.90869140625,0.41015625,1.0,-0.375,-0.9375
0.24,2.0,2.0,-1.0,-4.0,-1.0,-2.0,-1.0,0.0,-0.415283203125,-0.35699462890625,0.6917724609375,0.470703125,-0.23974609375,-0.89306640625,0.41064453125,0.3125,0.0625,-0.4375
0.245,-1.0,6.0,5.0,-1.0,0.0,-1.0,-2.0,1.0,-0.41546630859375,-0.357177734375,0.691650390625,0.47052001953125,-0.2392578125,-0.9111328125,0.408203125,-1.8125,0.3125,0.625
0.25,-1.0,-3.0,-1.0,2.0,5.0,-1.0,0.0,-1.0,-0.4154052734375,-0.35711669921875,0.6917724609375,0.470458984375,-0.2470703125,-0.9111328125,0.40771484375,1.625,-0.375,0.0625
0.255,0.0,2.0,0.0,-2.0,-5.0,-3.0,-2.0,-1.0
0.26,-3.0,-2.0,4.0,0.0,0.0,1.0,0.0,-1.0,-0.41522216796875,-0.3570556640625,0.6917724609375,0.47064208984375,-0.24365234375,-0.90283203125,0.41064453125,1.0,-0.0625,-1.3125
0.265,0.0,6.0,4.0,-7.0,-6.0,-1.0,-1.0,1.0,-0.41522216796875,-0.35699462890625,0.6917724609375,0.470703125,-0.2421875,-0.9033203125,0.40771484375,-0.375,-0.375,0.0
0.27,-2.0,-5.0,-29.0,-24.0,-4.0,2.0,-1.0,-2.0
0.275,-5.0,-2.0,5.0,4.0,-4.0,-2.0,-2.0,1.0,-0.415283203125,-0.35723876953125,0.69171142578125,0.4705810546875,-0.240234375,-0.91015625,0.40576171875,-1.0625,-0.375,0.1875
0.28,0.0,2.0,9.0,6.0,-2.0,-3.0,1.0,0.0,-0.415283203125,-0.35723876953125,0.69171142578125,0.4705810546875,-0.24365234375,-0.91552734375,0.40771484375,-0.8125,-0.25,0.5
0.285,-2.0,6.0,-7.0,-4.0,-2.0,-3.0,-1.0,-1.0,-0.4151611328125,-0.35711669921875,0.69183349609375,0.4705810546875,-0.2421875,-0.912109375,0.408203125,1.25,-0.75,0.5625
0.29,0.0,-12.0,0.0,5.0,-2.0,-1.0,0.0,-1.0,-0.4150390625,-0.3570556640625,0.69189453125,0.47064208984375,-0.24365234375,-0.9072265625,0.408203125,1.0,-0.1875,0.0625
0.295,-2.0,-2.0,0.0,-1.0,3.0,5.0,-1.0,0.0,-0.4150390625,-0.35699462890625,0.69195556640625,0.47064208984375,-0.24853515625,-0.8994140625,0.41162109375,0.3125,0.625,-0.1875
0.3,0.0,0.0,-15.0,0.0,-2.0,0.0,0.0,0.0,-0.4150390625,-0.35699462890625,0.69195556640625,0.47064208984375,-0.2412109375,-0.9013671875,0.4130859375,0.5625,0.4375,0.1875
0.305,0.0,-1.0,-2.0,-5.0,-1.0,0.0,-1.0,-1.0,-0.4150390625,-0.35699462890625,0.69195556640625,0.47064208984375,-0.25,-0.90234375,0.4130859375,-0.75,0.5,0.5
0.31,0.0,-5.0,-4.0,8.0,6.0,0.0,-2.0,-3.0,-0.41522216796875,-0.35711669921875,0.69189453125,0.47039794921875,-0.25390625,-0.91162109375,0.40576171875,-1.25,-0.25,0.3125
0.315,1.0,-1.0,-10.0,-15.0,-4.0,-4.0,1.0,0.0,-0.41522216796875,-0.35711669921875,0.69189453125,0.47039794921875,-0.24560546875,-0.9072265625,0.40478515625,0.625,-0.125,0.1875
0.32,-1.0,-4.0,-3.0,-4.0,-2.0,-2.0,-1.0,-1.0,-0.41522216796875,-0.35711669921875,0.69189453125,0.47039794921875,-0.24853515625,-0.90673828125,0.41357421875,0.8125,0.0625,-0.5625
0.325,-2.0,2.0,7.0,-4.0,-2.0,0.0,-2.0,-1.0,-0.415283203125,-0.35711669921875,0.69189453125,0.47039794921875,-0.24365234375,-0.90966796875,0.40625,-0.75,0.9375,0.0
0.33,-5.0,-2.0,-7.0,-4.0,-3.0,-5.0,-1.0,0.0
0.335,-1.0,-3.0,6.0,11.0,-1.0,-1.0,-1.0,1.0,-0.415283203125,-0.35711669921875,0.69189453125,0.47039794921875,-0.24267578125,-0.9072265625,0.40234375,-0.75,0.1875,0.375
0.34,2.0,3.0,0.0,-3.0,3.0,2.0,-1.0,-1.0,-0.41546630859375,-0.3572998046875,0.6917724609375,0.47021484375,-0.24462890625,-0.916015625,0.40283203125,0.0625,0.4375,0.875
0.345,1.0,10.0,-1.0,-3.0,1.0,-1.0,0.0,0.0
0.35,1.0,-2.0,7.0,12.0,7.0,2.0,1.0,0.0,-0.41546630859375,-0.35723876953125,0.6917724609375,0.47021484375,-0.25048828125,-0.9072265625,0.4091796875,0.5,0.0,0.6875
0.355,0.0,4.0,3.0,16.0,2.0,0.0,-3.0,-1.0,-0.41552734375,-0.35723876953125,0.69183349609375,0.47021484375,-0.2470703125,-0.90283203125,0.40087890625,-0.4375,-0.375,0.75
0.36,-2.0,-2.0,-1.0,0.0,-2.0,-1.0,-3.0,-1.0,-0.41546630859375,-0.35723876953125,0.6917724609375,0.47021484375,-0.234375,-0.912109375,0.41015625,0.0,-0.6875,0.5625
0.365,-2.0,-4.0,3.0,1.0,-7.0,-4.0,-3.0,-3.0,-0.41546630859375,-0.35723876953125,0.6917724609375,0.47021484375,-0.24365234375,-0.908203125,0.4111328125,0.3125,-0.125,0.625
0.37,-1.0,-4.0,-7.0,-1.0,0.0,-1.0,-3.0,1.0,-0.41546630859375,-0.3572998046875,0.6917724609375,0.47021484375,-0.244140625,-0.91259765625,0.4052734375,0.1875,0.0625,0.375
0.375,-1.0,-12.0,1.0,2.0,2.0,0.0,2.0,-1.0,-0.41552734375,-0.35723876953125,0.6917724609375,0.47021484375,-0.2509765625,-0.9013671875,0.41064453125,0.625,0.25,0.4375
0.38,-1.0,2.0,-1.0,8.0,0.0,-1.0,0.0,-1.0,-0.41546630859375,-0.35723876953125,0.69183349609375,0.47021484375,-0.244140625,-0.89599609375,0.41259765625,-0.125,-0.1875,0.9375
0.385,-1.0,-3.0,-8.0,0.0,-3.0,1.0,1.0,0.0,-0.4156494140625,-0.35723876953125,0.6917724609375,0.4700927734375,-0.24267578125,-0.90087890625,0.41357421875,-1.375,0.625,0.9375
0.39,-1.0,3.0,-20.0,-11.0,-1.0,-1.0,-2.0,-2.0,-0.4156494140625,-0.35723876953125,0.6917724609375,0.4700927734375,-0.244140625,-0.90966796875,0.40869140625,-0.875,-0.1875,0.25
0.395,-2.0,-1.0,3.0,-3.0,2.0,0.0,-3.0,-1.0,-0.4156494140625,-0.35723876953125,0.6917724609375,0.4700927734375,-0.24951171875,-0.9072265625,0.4091796875,0.8125,0.0625,-0.75
0.4,0.0,-5.0,-3.0,-3.0,2.0,2.0,1.0,0.0,-0.41571044921875,-0.35723876953125,0.6917724609375,0.4700927734375,-0.24267578125,-0.90478515625,0.4013671875,0.0,-0.125,-0.9375
0.405,-2.0,-4.0,17.0,-3.0,1.0,-3.0,-1.0,-2.0,-0.41583251953125,-0.357421875,0.691650390625,0.469970703125,-0.248046875,-0.90283203125,0.40380859375,-1.5,0.0625,-0.1875
0.41,1.0,2.0,-7.0,-1.0,3.0,0.0,-1.0,-1.0
0.415,-2.0,-5.0,3.0,-6.0,1.0,0.0,-3.0,0.0,-0.4158935546875,-0.35760498046875,0.691650390625,0.4698486328125,-0.24365234375,-0.9130859375,0.4111328125,-1.5,-0.4375,0.4375
0.42,-1.0,-2.0,-6.0,-8.0,0.0,-1.0,-1.0,-1.0,-0.4158935546875,-0.35760498046875,0.691650390625,0.46978759765625,-0.24609375,-0.9150390625,0.40576171875,-0.125,0.375,0.875
0.425,2.0,1.0,4.0,8.0,3.0,2.0,2.0,1.0,-0.41595458984375,-0.35760498046875,0.691650390625,0.46978759765625,-0.2490234375,-0.912109375,0.40625,0.5,0.4375,0.4375
0.43,0.0,3.0,-6.0,-6.0,-4.0,-5.0,-1.0,-3.0,-0.41595458984375,-0.35760498046875,0.691650390625,0.46978759765625,-0.25048828125,-0.9013671875,0.41015625,0.9375,0.0,0.4375
0.435,1.0,-9.0,-9.0,-18.0,-4.0,-2.0,-2.0,0.0,-0.41595458984375,-0.35760498046875,0.691650390625,0.46978759765625,-0.2451171875,-0.90087890625,0.4091796875,0.3125,-0.0625,0.1875
0.44,-9.0,-6.0,1.0,15.0,23.0,5.0,3.0,-2.0,-0.41595458984375,-0.35760498046875,0.691650390625,0.46978759765625,-0.25537109375,-0.91650390625,0.40478515625,0.0625,0.125,-0.0625
0.445,-1.0,-1.0,7.0,7.0,1.0,0.0,0.0,-1.0,-0.4158935546875,-0.3572998046875,0.69183349609375,0.4698486328125,-0.2578125,-0.90966796875,0.40771484375,2.125,-0.125,-0.125
0.45,4.0,5.0,-3.0,-20.0,-12.0,-2.0,-4.0,-2.0,-0.41619873046875,-0.35687255859375,0.691650390625,0.47021484375,-0.25146484375,-0.921875,0.40966796875,1.5625,3.25,-0.375
0.455,-7.0,-5.0,13.0,-8.0,-6.0,-2.0,-5.0,-16.0,-0.41632080078125,-0.35614013671875,0.6915283203125,0.47076416015625,-0.259765625,-0.92724609375,0.39990234375,4.6875,3.5,-1.1875
0.46,10.0,-4.0,11.0,1.0,0.0,2.0,2.0,-10.0,-0.41552734375,-0.35491943359375,0.692138671875,0.47149658203125,-0.279296875,-0.91259765625,0.408203125,10.4375,-1.125,-1.6875
0.465,22.0,11.0,3.0,3.0,4.0,-1.0,9.0,9.0,-0.41448974609375,-0.35345458984375,0.69305419921875,0.47216796875,-0.27197265625,-0.90576171875,0.40380859375,12.75,-1.625,-0.4375
0.47,35.0,12.0,3.0,-1.0,0.0,-3.0,18.0,54.0,-0.4132080078125,-0.35162353515625,0.69403076171875,0.47320556640625,-0.26171875,-0.89208984375,0.44140625,13.6875,-0.625,-0.8125
0.475,-8.0,-8.0,5.0,13.0,10.0,2.0,14.0,29.0,-0.4119873046875,-0.350341796875,0.6944580078125,0.47454833984375,-0.2421875,-0.921875,0.43212890625,12.625,0.375,-3.0
0.48,5.0,5.0,-1.0,21.0,4.0,1.0,19.0,16.0,-0.4110107421875,-0.34912109375,0.6942138671875,0.4766845703125,-0.21728515625,-0.92041015625,0.451171875,11.25,5.375,-6.375
0.485,-32.0,9.0,-19.0,1.0,-2.0,-6.0,-12.0,-18.0,-0.41033935546875,-0.3438720703125,0.695556640625,0.4791259765625,-0.294921875,-0.90478515625,0.43408203125,13.875,5.5625,0.9375
0.49,2.0,-1.0,-3.0,-7.0,-4.0,-2.0,-1.0,-3.0,-0.40972900390625,-0.3426513671875,0.6959228515625,0.47998046875,-0.255859375,-0.8876953125,0.42578125,10.125,1.0,-1.1875
0.495,-36.0,2.0,-3.0,-14.0,-8.0,-5.0,-29.0,-45.0,-0.40875244140625,-0.34197998046875,0.69622802734375,0.48077392578125,-0.22021484375,-0.89013671875,0.42529296875,8.75,-0.6875,-1.3125
0.5,-21.0,-20.0,6.0,8.0,6.0,4.0,28.0,24.0,-0.40740966796875,-0.3397216796875,0.69744873046875,0.48187255859375,-0.26953125,-0.95556640625,0.42236328125,19.3125,-0.4375,2.9375
0.505,11.0,14.0,14.0,-26.0,-8.0,-6.0,-38.0,-31.0
0.51,-7.0,24.0,28.0,-32.0,-10.0,1.0,-7.0,-38.0,-0.40582275390625,-0.3360595703125,0.6990966796875,0.4833984375,-0.25439453125,-0.89453125,0.416015625,28.4375,1.75,3.6875
0.515,-3.0,5.0,-6.0,-10.0,0.0,-1.0,-12.0,-11.0,-0.403564453125,-0.3341064453125,0.69989013671875,0.48541259765625,-0.1953125,-0.84814453125,0.43115234375,21.25,-0.3125,-3.1875
0.52,15.0,21.0,-23.0,-38.0,-8.0,3.0,-12.0,-65.0,-0.40234375,-0.33245849609375,0.70086669921875,0.48614501953125,-0.2255859375,-0.85595703125,0.45849609375,13.1875,-0.9375,2.125
0.525,68.0,2.0,-5.0,24.0,6.0,1.0,-11.0,42.0,-0.402099609375,-0.33123779296875,0.70135498046875,0.48651123046875,-0.2353515625,-0.8369140625,0.45166015625,7.1875,2.25,2.125
0.53,-5.0,-16.0,-52.0,-23.0,5.0,3.0,18.0,-17.0,-0.4022216796875,-0.33026123046875,0.70147705078125,0.48681640625,-0.251953125,-0.845703125,0.46875,3.3125,3.3125,0.875
0.535,3.0,36.0,73.0,-67.0,-17.0,-26.0,4.0,-20.0,-0.4024658203125,-0.33062744140625,0.70166015625,0.48614501953125,-0.26416015625,-0.90625,0.435546875,-0.5,-2.75,2.3125
0.54,-8.0,1.0,-29.0,48.0,12.0,10.0,-4.0,-29.0,-0.4022216796875,-0.3311767578125,0.70196533203125,0.48553466796875,-0.228515625,-0.92529296875,0.4521484375,0.125,-4.25,3.875
0.545,21.0,-4.0,18.0,19.0,12.0,1.0,2.0,-14.0,-0.39776611328125,-0.32598876953125,0.70404052734375,0.48968505859375,-0.240234375,-0.85546875,0.5205078125,26.9375,1.3125,-3.875
0.55,-12.0,10.0,-14.0,-35.0,-9.0,-1.0,3.0,19.0
0.555,-16.0,9.0,59.0,16.0,-8.0,-14.0,-62.0,-73.0,-0.3948974609375,-0.32281494140625,0.7061767578125,0.49102783203125,-0.2705078125,-0.7802734375,0.5087890625,24.3125,-5.625,-0.625
0.56,29.0,21.0,-19.0,-46.0,-26.0,-10.0,24.0,22.0,-0.3929443359375,-0.321533203125,0.70794677734375,0.49090576171875,-0.22412109375,-0.75830078125,0.48583984375,10.4375,-8.0625,4.4375
0.565,57.0,30.0,52.0,-33.0,-34.0,-39.0,-31.0,115.0,-0.39239501953125,-0.3221435546875,0.7091064453125,0.4892578125,-0.23779296875,-0.82763671875,0.515625,-4.9375,-8.8125,7.375
0.57,-105.0,-20.0,-76.0,-28.0,-21.0,20.0,9.0,-112.0,-0.3912353515625,-0.32220458984375,0.71038818359375,0.48834228515625,-0.2421875,-0.92431640625,0.5107421875,4.875,-9.0,6.5
0.575,20.0,28.0,-12.0,-73.0,-41.0,-8.0,33.0,-37.0,-0.38592529296875,-0.31671142578125,0.7135009765625,0.4915771484375,-0.22998046875,-0.78271484375,0.4912109375,27.875,-0.6875,1.375
0.58,87.0,41.0,-42.0,52.0,-2.0,-30.0,47.0,107.0
0.585,-44.0,28.0,19.0,28.0,11.0,24.0,113.0,60.0,-0.38543701171875,-0.31610107421875,0.71441650390625,0.490966796875,-0.30029296875,-0.845703125,0.50390625,4.6875,-5.375,2.0625
0.59,30.0,92.0,62.0,7.0,-14.0,9.0,-60.0,-67.0,-0.3828125,-0.31378173828125,0.716064453125,0.49212646484375,-0.2392578125,-0.84814453125,0.5234375,4.0,0.1875,-1.5
0.595,32.0,33.0,-2.0,56.0,34.0,18.0,28.0,-19.0
0.6,114.0,27.0,-23.0,-19.0,-3.0,-16.0,-11.0,-1.0,-0.38238525390625,-0.3126220703125,0.71588134765625,0.49346923828125,-0.2373046875,-0.89453125,0.53759765625,9.4375,4.875,-3.0
0.605,-81.0,-89.0,-93.0,62.0,46.0,51.0,-35.0,-106.0,-0.382080078125,-0.311279296875,0.716064453125,0.4942626953125,-0.27880859375,-0.822265625,0.54638671875,6.8125,2.8125,-2.8125
0.61,-6.0,77.0,-33.0,21.0,5.0,-13.0,31.0,127.0,-0.38214111328125,-0.31072998046875,0.71630859375,0.4942626953125,-0.2724609375,-0.82177734375,0.50732421875,2.6875,-0.1875,-0.0625
0.615,-71.0,-6.0,22.0,91.0,46.0,-5.0,-26.0,10.0,-0.38214111328125,-0.310791015625,0.71624755859375,0.4942626953125,-0.23583984375,-0.8779296875,0.5322265625,-0.0625,-0.1875,-0.875
0.62,-2.0,-72.0,-44.0,-26.0,-11.0,-23.0,-58.0,-56.0,-0.3812255859375,-0.3094482421875,0.71649169921875,0.4954833984375,-0.23779296875,-0.8466796875,0.52880859375,11.25,2.0,-2.625
0.625,-22.0,-30.0,-13.0,30.0,25.0,-14.0,-40.0,-50.0,-0.38055419921875,-0.308349609375,0.7169189453125,0.49609375,-0.248046875,-0.8037109375,0.51953125,-0.6875,0.6875,-0.125
0.63,-43.0,-36.0,-25.0,-92.0,-91.0,-48.0,-61.0,-48.0
0.635,-44.0,26.0,-56.0,-117.0,-99.0,-18.0,38.0,-51.0,-0.3807373046875,-0.30859375,0.71649169921875,0.49639892578125,-0.24365234375,-0.86279296875,0.5185546875,0.125,1.4375,-2.375
0.64,-5.0,-99.0,-92.0,47.0,34.0,-30.0,-87.0,-28.0,-0.37994384765625,-0.3079833984375,0.71636962890625,0.49761962890625,-0.234375,-0.89111328125,0.57568359375,6.375,1.875,-3.875
0.645,-7.0,44.0,12.0,-128.0,-74.0,0.0,-62.0,-42.0,-0.37945556640625,-0.30633544921875,0.71673583984375,0.49847412109375,-0.25537109375,-0.77880859375,0.4990234375,10.5625,2.3125,-1.5
0.65,-65.0,0.0,45.0,19.0,13.0,21.0,-22.0,-43.0,-0.3804931640625,-0.30712890625,0.7164306640625,0.49755859375,-0.26806640625,-0.84228515625,0.53173828125,-8.3125,0.0625,1.8125
0.655,-39.0,-81.0,46.0,38.0,51.0,-9.0,-41.0,-48.0,-0.38165283203125,-0.30828857421875,0.715576171875,0.4971923828125,-0.234375,-0.91748046875,0.55810546875,-9.125,3.8125,0.375
0.66,127.0,27.0,29.0,100.0,57.0,-24.0,71.0,127.0,-0.382568359375,-0.30767822265625,0.71502685546875,0.49774169921875,-0.27099609375,-0.85009765625,0.533203125,0.125,6.625,-2.0625
0.665,104.0,31.0,7.0,-55.0,-18.0,-61.0,19.0,45.0,-0.38336181640625,-0.30816650390625,0.71441650390625,0.4976806640625,-0.26123046875,-0.85888671875,0.50732421875,-3.75,2.1875,-1.625
0.67,46.0,39.0,-32.0,-1.0,7.0,7.0,55.0,-52.0,-0.38543701171875,-0.3109130859375,0.71331787109375,0.4959716796875,-0.2763671875,-0.89697265625,0.46533203125,-17.75,-1.9375,0.625
0.675,2.0,18.0,20.0,23.0,1.0,3.0,19.0,18.0,-0.3878173828125,-0.314453125,0.71173095703125,0.49407958984375,-0.31005859375,-0.8447265625,0.4482421875,-24.8125,-3.5625,-4.125
0.68,43.0,34.0,24.0,32.0,13.0,22.0,34.0,40.0,-0.38873291015625,-0.316650390625,0.70928955078125,0.49542236328125,-0.1904296875,-0.7998046875,0.58642578125,-19.25,8.4375,-13.625
0.685,-73.0,-50.0,-26.0,17.0,-9.0,4.0,-5.0,16.0,-0.39068603515625,-0.31884765625,0.705322265625,0.49822998046875,-0.11181640625,-0.779296875,0.57861328125,-22.5625,21.375,-17.9375
0.69,-8.0,-4.0,-21.0,16.0,10.0,20.0,19.0,15.0,-0.39617919921875,-0.321533203125,0.70074462890625,0.49859619140625,-0.244140625,-0.77490234375,0.541015625,-40.1875,26.0625,-12.125
0.695,-46.0,-15.0,-30.0,-3.0,-4.0,-22.0,-14.0,2.0,-0.4010009765625,-0.32611083984375,0.69732666015625,0.49652099609375,-0.21875,-0.8701171875,0.46142578125,-21.4375,0.1875,-1.5625
0.7,-14.0,15.0,5.0,-25.0,-12.0,-3.0,1.0,5.0
0.705,-2.0,-10.0,-33.0,-10.0,-4.0,0.0,0.0,6.0,-0.40380859375,-0.329833984375,0.696044921875,0.49365234375,-0.2392578125,-0.9931640625,0.4697265625,-28.1875,-1.625,6.5625
0.71,-8.0,-2.0,-6.0,-2.0,4.0,2.0,0.0,-4.0,-0.4083251953125,-0.332275390625,0.69403076171875,0.4910888671875,-0.2666015625,-0.92578125,0.4833984375,-16.9375,6.75,1.0
0.715,6.0,6.0,13.0,-4.0,0.0,-10.0,-18.0,0.0,-0.41058349609375,-0.3328857421875,0.693603515625,0.4893798828125,-0.33984375,-0.9228515625,0.3642578125,-7.3125,0.625,3.5625
0.72,10.0,21.0,21.0,10.0,7.0,17.0,12.0,5.0,-0.4110107421875,-0.334228515625,0.69384765625,0.48779296875,-0.24755859375,-0.9326171875,0.39794921875,-5.125,-6.25,5.375
0.725,-20.0,5.0,12.0,12.0,2.0,-6.0,-4.0,-11.0,-0.4102783203125,-0.33453369140625,0.694580078125,0.48712158203125,-0.21484375,-0.92529296875,0.4384765625,2.5,-6.125,5.4375
0.73,11.0,-8.0,-22.0,-13.0,-1.0,1.0,1.0,-2.0,-0.40985107421875,-0.33392333984375,0.69512939453125,0.4871826171875,-0.244140625,-0.90283203125,0.4599609375,4.8125,-0.875,2.6875
0.735,3.0,-23.0,-30.0,8.0,-2.0,8.0,14.0,7.0,-0.40985107421875,-0.33270263671875,0.6954345703125,0.48748779296875,-0.26708984375,-0.85107421875,0.443359375,5.75,2.5,1.0
0.74,19.0,-13.0,8.0,-18.0,-5.0,3.0,6.0,12.0,-0.40985107421875,-0.33221435546875,0.6964111328125,0.4864501953125,-0.3076171875,-0.83349609375,0.396484375,3.25,-5.5625,3.9375
0.745,6.0,9.0,-5.0,-11.0,-3.0,5.0,1.0,-3.0,-0.409423828125,-0.333984375,0.69793701171875,0.48345947265625,-0.23486328125,-0.89111328125,0.44873046875,-3.1875,-7.25,4.25
0.75,7.0,4.0,3.0,-3.0,-4.0,1.0,1.0,3.0,-0.40875244140625,-0.33355712890625,0.6986083984375,0.48333740234375,-0.24755859375,-0.86865234375,0.4697265625,3.3125,-2.875,2.1875
0.755,5.0,10.0,17.0,18.0,5.0,2.0,-1.0,-2.0
0.76,14.0,8.0,13.0,29.0,7.0,9.0,6.0,8.0,-0.4085693359375,-0.333984375,0.69873046875,0.48297119140625,-0.25927734375,-0.86865234375,0.447265625,-1.875,-3.3125,-0.0625
0.765,6.0,10.0,-10.0,12.0,11.0,-1.0,3.0,3.0,-0.407958984375,-0.33660888671875,0.6993408203125,0.48077392578125,-0.26123046875,-0.87939453125,0.4365234375,-6.875,-9.1875,1.6875
0.77,-2.0,-8.0,8.0,1.0,-2.0,-2.0,5.0,1.0
0.775,-3.0,-1.0,-8.0,-11.0,0.0,-1.0,-4.0,1.0,-0.4071044921875,-0.3377685546875,0.6998291015625,0.47998046875,-0.24169921875,-0.87158203125,0.44384765625,-3.3125,-9.125,0.4375
0.78,-3.0,-10.0,-7.0,39.0,7.0,-4.0,-3.0,-2.0,-0.40533447265625,-0.339599609375,0.7000732421875,0.4798583984375,-0.24267578125,-0.8603515625,0.4677734375,-3.3125,-5.125,-2.4375
0.785,-13.0,-19.0,-57.0,-25.0,-6.0,9.0,4.0,8.0,-0.4041748046875,-0.34014892578125,0.70037841796875,0.47998046875,-0.24658203125,-0.85693359375,0.46337890625,0.25,-6.625,-3.875
0.79,10.0,4.0,37.0,-5.0,-1.0,-7.0,-6.0,-1.0,-0.40362548828125,-0.3409423828125,0.70025634765625,0.48004150390625,-0.21240234375,-0.849609375,0.47509765625,-4.375,-2.75,-2.125
0.795,-1.0,3.0,18.0,14.0,1.0,1.0,0.0,1.0,-0.40277099609375,-0.343017578125,0.69891357421875,0.48126220703125,-0.23681640625,-0.89990234375,0.48095703125,-4.75,-0.125,-7.5625
0.8,-1.0,-28.0,-28.0,6.0,-2.0,3.0,2.0,0.0,-0.402587890625,-0.3441162109375,0.69842529296875,0.4813232421875,-0.2421875,-0.9052734375,0.45458984375,-4.625,-3.0625,-4.375
0.805,-4.0,12.0,-8.0,4.0,-1.0,-6.0,-7.0,-1.0
0.81,7.0,4.0,9.0,-8.0,1.0,-4.0,-6.0,2.0,-0.40118408203125,-0.345458984375,0.697998046875,0.48211669921875,-0.21728515625,-0.9091796875,0.46826171875,1.8125,-1.4375,-4.1875
0.815,-1.0,-8.0,-18.0,-4.0,-2.0,-3.0,-4.0,-5.0,-0.40020751953125,-0.34515380859375,0.69775390625,0.4835205078125,-0.228515625,-0.89697265625,0.4560546875,2.25,-0.0625,-2.75
0.82,4.0,1.0,16.0,-2.0,1.0,-6.0,-3.0,-2.0
0.825,-2.0,19.0,5.0,9.0,1.0,-2.0,-3.0,-2.0,-0.4005126953125,-0.34588623046875,0.6973876953125,0.48333740234375,-0.24267578125,-0.89892578125,0.43408203125,-3.8125,-1.25,-2.0
0.83,-2.0,-5.0,-5.0,3.0,0.0,6.0,10.0,2.0,-0.400634765625,-0.34661865234375,0.6971435546875,0.4830322265625,-0.228515625,-0.8837890625,0.45263671875,-0.6875,-0.75,0.125
0.835,-2.0,-10.0,9.0,4.0,0.0,-8.0,-9.0,2.0
0.84,-2.0,-19.0,37.0,16.0,-5.0,-1.0,-1.0,-3.0,-0.40057373046875,-0.34661865234375,0.69720458984375,0.4830322265625,-0.228515625,-0.8994140625,0.46044921875,0.375,0.9375,-0.75
0.845,-1.0,10.0,0.0,-11.0,0.0,2.0,2.0,4.0,-0.4007568359375,-0.34649658203125,0.6968994140625,0.48333740234375,-0.24267578125,-0.89599609375,0.45849609375,-0.1875,1.8125,-2.125
0.85,-17.0,9.0,2.0,2.0,-2.0,-4.0,-2.0,-6.0,-0.40081787109375,-0.34637451171875,0.69683837890625,0.4833984375,-0.25048828125,-0.9189453125,0.45947265625,0.4375,0.3125,-1.125
0.855,3.0,-1.0,30.0,5.0,-2.0,-1.0,-3.0,-4.0,-0.400634765625,-0.3458251953125,0.6971435546875,0.48358154296875,-0.24267578125,-0.88525390625,0.443359375,4.0,0.0625,0.375
0.86,-3.0,-24.0,-21.0,7.0,1.0,3.0,0.0,0.0,-0.4013671875,-0.3458251953125,0.6968994140625,0.4832763671875,-0.2353515625,-0.8818359375,0.44384765625,-4.5,0.9375,-0.125
0.865,-1.0,21.0,-1.0,-16.0,-5.0,-5.0,-4.0,-2.0,-0.40185546875,-0.34613037109375,0.69677734375,0.48291015625,-0.232421875,-0.90380859375,0.44873046875,-3.1875,0.8125,1.4375
0.87,-1.0,21.0,2.0,-3.0,0.0,-1.0,0.0,0.0,-0.40228271484375,-0.3463134765625,0.69659423828125,0.482666015625,-0.2333984375,-0.908203125,0.43798828125,-2.0625,1.0,1.0
0.875,-4.0,-3.0,-3.0,-5.0,-2.0,2.0,0.0,-5.0,-0.4031982421875,-0.3460693359375,0.6964111328125,0.4822998046875,-0.23828125,-0.9072265625,0.4384765625,-0.5625,1.5,1.6875
0.88,-3.0,-8.0,4.0,20.0,-3.0,-5.0,-1.0,-2.0,-0.40313720703125,-0.3453369140625,0.69683837890625,0.48236083984375,-0.2353515625,-0.88330078125,0.439453125,4.1875,0.625,2.1875
0.885,-14.0,-5.0,-23.0,-18.0,-10.0,-3.0,-1.0,0.0,-0.40289306640625,-0.3446044921875,0.6973876953125,0.48223876953125,-0.23828125,-0.8623046875,0.44091796875,4.0,-0.625,2.5
0.89,3.0,16.0,11.0,-4.0,-1.0,-2.0,-1.0,-4.0,-0.40313720703125,-0.34490966796875,0.69744873046875,0.48175048828125,-0.24072265625,-0.8916015625,0.44482421875,-2.75,-1.375,1.8125
0.895,-20.0,-18.0,-8.0,-13.0,0.0,10.0,10.0,-3.0,-0.4034423828125,-0.34521484375,0.69769287109375,0.48095703125,-0.236328125,-0.9130859375,0.44873046875,-2.8125,-1.5,3.8125
0.9,-7.0,-19.0,-24.0,1.0,-6.0,-8.0,-12.0,-4.0,-0.4036865234375,-0.3447265625,0.6978759765625,0.480712890625,-0.23291015625,-0.921875,0.4599609375,1.0,1.625,3.875
0.905,19.0,-1.0,-7.0,4.0,2.0,-5.0,3.0,11.0,-0.40350341796875,-0.34368896484375,0.6983642578125,0.48095703125,-0.2392578125,-0.8828125,0.45263671875,5.9375,1.5,2.3125
0.91,8.0,-8.0,-2.0,-12.0,-24.0,-6.0,19.0,52.0,-0.40338134765625,-0.34283447265625,0.6988525390625,0.48095703125,-0.26318359375,-0.88671875,0.44384765625,4.625,-0.0625,1.6875
0.915,-10.0,6.0,21.0,0.0,-9.0,-5.0,-9.0,-33.0,-0.40350341796875,-0.34222412109375,0.6993408203125,0.4805908203125,-0.25341796875,-0.87841796875,0.45361328125,1.5625,0.0625,3.4375
0.92,-31.0,-4.0,9.0,9.0,4.0,0.0,-5.0,-11.0,-0.403076171875,-0.34161376953125,0.6998291015625,0.48065185546875,-0.240234375,-0.90869140625,0.46044921875,5.25,-0.9375,2.0
0.925,14.0,1.0,-13.0,-4.0,7.0,1.0,-8.0,-9.0,-0.40289306640625,-0.3411865234375,0.6998291015625,0.481201171875,-0.220703125,-0.8779296875,0.44970703125,3.3125,2.1875,-0.3125
0.93,8.0,-31.0,-10.0,-6.0,0.0,-4.0,7.0,30.0,-0.402099609375,-0.33917236328125,0.70086669921875,0.48175048828125,-0.22802734375,-0.9052734375,0.46337890625,9.8125,1.875,3.9375
0.935,-4.0,0.0,-8.0,-6.0,4.0,0.0,-7.0,-1.0
0.94,26.0,10.0,-3.0,-11.0,-16.0,0.0,11.0,26.0,-0.40216064453125,-0.33734130859375,0.70123291015625,0.482421875,-0.25830078125,-0.88134765625,0.4609375,9.5,5.125,1.8125
0.945,-3.0,-16.0,-18.0,-5.0,-1.0,-3.0,-5.0,-13.0,-0.40118408203125,-0.3353271484375,0.70196533203125,0.4835205078125,-0.24853515625,-0.83154296875,0.47705078125,12.3125,2.1875,-0.75
0.95,-34.0,15.0,13.0,-23.0,-3.0,1.0,1.0,19.0,-0.4014892578125,-0.3358154296875,0.7010498046875,0.4842529296875,-0.2197265625,-0.89306640625,0.4560546875,-2.1875,3.9375,-4.3125
0.955,-10.0,7.0,6.0,7.0,4.0,-9.0,-13.0,-1.0,-0.40155029296875,-0.33526611328125,0.70147705078125,0.4840087890625,-0.25732421875,-0.8974609375,0.44140625,4.1875,-0.375,3.0
0.96,25.0,5.0,14.0,-15.0,-4.0,-1.0,-15.0,-18.0,-0.40081787109375,-0.33367919921875,0.70257568359375,0.484130859375,-0.24169921875,-0.90625,0.45556640625,12.4375,-1.0,5.4375
0.965,-31.0,7.0,6.0,-9.0,-4.0,4.0,6.0,-4.0,-0.39959716796875,-0.3316650390625,0.70306396484375,0.48577880859375,-0.2119140625,-0.83349609375,0.4677734375,14.9375,3.75,-1.6875
0.97,50.0,26.0,12.0,-2.0,3.0,4.0,-1.0,17.0,-0.39910888671875,-0.3311767578125,0.70269775390625,0.487060546875,-0.25146484375,-0.892578125,0.48046875,5.5625,2.5625,-6.3125
0.975,5.0,-45.0,-13.0,-16.0,-1.0,0.0,29.0,14.0,-0.39892578125,-0.3311767578125,0.70269775390625,0.48724365234375,-0.23046875,-0.91748046875,0.42724609375,5.0,-0.875,0.4375
0.98,19.0,43.0,15.0,2.0,-9.0,-7.0,-51.0,-64.0,-0.39898681640625,-0.32989501953125,0.70318603515625,0.4873046875,-0.2509765625,-0.89599609375,0.42822265625,9.75,1.8125,4.25
0.985,-43.0,8.0,50.0,-56.0,-9.0,-7.0,-7.0,3.0,-0.3984375,-0.3280029296875,0.703857421875,0.48809814453125,-0.248046875,-0.86376953125,0.47802734375,11.75,2.9375,1.5
0.99,-39.0,-2.0,25.0,11.0,-4.0,-7.0,-47.0,-51.0,-0.39776611328125,-0.32672119140625,0.7039794921875,0.4892578125,-0.23046875,-0.87646484375,0.462890625,11.3125,3.125,-1.375
0.995,-10.0,-16.0,11.0,66.0,13.0,-2.0,6.0,26.0,-0.3961181640625,-0.32373046875,0.70501708984375,0.49114990234375,-0.2138671875,-0.861328125,0.5068359375,21.6875,4.25,0.6875
1.0,-30.0,-18.0,-27.0,-19.0,-11.0,-5.0,-29.0,-39.0,-0.39508056640625,-0.32073974609375,0.7054443359375,0.4932861328125,-0.19140625,-0.79931640625,0.50537109375,17.8125,9.125,-0.25
1.005,9.0,19.0,40.0,-4.0,-1.0,8.0,85.0,79.0,-0.397705078125,-0.32012939453125,0.70501708984375,0.49224853515625,-0.30810546875,-0.85546875,0.501953125,-3.25,1.5,2.375
1.01,27.0,-15.0,-5.0,3.0,-26.0,-3.0,0.0,-44.0,-0.39776611328125,-0.32012939453125,0.70489501953125,0.49237060546875,-0.193359375,-0.8515625,0.50439453125,-1.5,3.0,2.3125
1.015,29.0,2.0,-28.0,-21.0,-3.0,1.0,20.0,-5.0
1.02,4.0,-17.0,-41.0,-103.0,-55.0,-21.0,-40.0,-29.0,-0.3983154296875,-0.3194580078125,0.704833984375,0.492431640625,-0.298828125,-0.83349609375,0.48291015625,8.3125,-1.0,2.6875
1.025,-16.0,-20.0,3.0,44.0,32.0,5.0,15.0,29.0
1.03,-45.0,-15.0,-27.0,-3.0,-5.0,-4.0,-47.0,-54.0,-0.3974609375,-0.31890869140625,0.705810546875,0.4920654296875,-0.2392578125,-0.85986328125,0.4814453125,5.9375,-4.75,4.75
1.035,-1.0,32.0,40.0,-73.0,-18.0,-5.0,26.0,-6.0,-0.3961181640625,-0.3170166015625,0.70758056640625,0.4918212890625,-0.28125,-0.857421875,0.47119140625,6.5,-1.5625,5.1875
1.04,48.0,-17.0,36.0,106.0,50.0,10.0,9.0,25.0
1.045,15.0,-89.0,-64.0,-70.0,-4.0,11.0,59.0,83.0,-0.39544677734375,-0.31634521484375,0.70867919921875,0.4912109375,-0.28759765625,-0.9130859375,0.4765625,8.375,-6.0,4.8125
1.05,37.0,96.0,77.0,82.0,49.0,14.0,-66.0,52.0,-0.39361572265625,-0.3154296875,0.7100830078125,0.4912109375,-0.2529296875,-0.86865234375,0.5126953125,11.25,-7.875,2.9375
1.055,-71.0,-57.0,-39.0,-79.0,-46.0,-18.0,-100.0,-114.0,-0.39056396484375,-0.3126220703125,0.71246337890625,0.49200439453125,-0.2529296875,-0.8369140625,0.51416015625,7.9375,-2.875,3.375
1.06,25.0,26.0,9.0,104.0,36.0,6.0,19.0,40.0
1.065,-20.0,-13.0,-28.0,-43.0,-18.0,26.0,125.0,-23.0,-0.39007568359375,-0.31207275390625,0.71331787109375,0.49151611328125,-0.27294921875,-0.85693359375,0.51123046875,4.375,-4.125,3.9375
1.07,-58.0,-33.0,-14.0,-46.0,-19.0,-8.0,-100.0,-40.0,-0.38897705078125,-0.31170654296875,0.71392822265625,0.49169921875,-0.259765625,-0.861328125,0.51416015625,6.5625,-4.5625,-0.1875
1.075,-29.0,-60.0,15.0,-107.0,-86.0,-48.0,12.0,-76.0,-0.3878173828125,-0.3106689453125,0.71435546875,0.49273681640625,-0.2451171875,-0.81005859375,0.57080078125,6.0625,0.1875,-3.0
1.08,98.0,67.0,-34.0,28.0,-8.0,-26.0,-76.0,7.0,-0.3878173828125,-0.31121826171875,0.7137451171875,0.49322509765625,-0.2451171875,-0.8349609375,0.55615234375,-4.8125,1.5625,-5.0
1.085,127.0,97.0,69.0,76.0,19.0,45.0,95.0,81.0,-0.38665771484375,-0.3115234375,0.71331787109375,0.49456787109375,-0.251953125,-0.8486328125,0.4951171875,7.0625,-1.625,-4.9375
1.09,-96.0,51.0,38.0,12.0,17.0,-34.0,-21.0,-34.0,-0.38580322265625,-0.31182861328125,0.71343994140625,0.494873046875,-0.23388671875,-0.83984375,0.53466796875,0.8125,-3.5,-2.6875
1.095,-72.0,41.0,-2.0,-88.0,-46.0,-18.0,-119.0,-106.0,-0.3846435546875,-0.3111572265625,0.71337890625,0.49627685546875,-0.228515625,-0.87158203125,0.546875,8.5625,1.0625,-4.625
1.1,-121.0,-45.0,-35.0,65.0,25.0,28.0,-42.0,20.0,-0.3843994140625,-0.3104248046875,0.71319580078125,0.4971923828125,-0.24560546875,-0.8330078125,0.52978515625,4.5625,2.9375,-3.6875
1.105,50.0,-97.0,63.0,96.0,62.0,33.0,112.0,77.0,-0.38421630859375,-0.30908203125,0.71337890625,0.4979248046875,-0.2568359375,-0.7890625,0.49169921875,8.0625,3.125,-1.3125
1.11,49.0,78.0,108.0,41.0,41.0,-11.0,86.0,67.0,-0.38427734375,-0.3084716796875,0.71319580078125,0.49847412109375,-0.27001953125,-0.8525390625,0.486328125,5.5625,1.75,-2.625
1.115,-14.0,-9.0,-17.0,-42.0,-16.0,-49.0,-83.0,-21.0,-0.38360595703125,-0.3077392578125,0.7135009765625,0.4990234375,-0.2451171875,-0.8916015625,0.51318359375,9.4375,-0.875,0.1875
1.12,-53.0,-86.0,-15.0,-25.0,22.0,-6.0,-33.0,-4.0,-0.3831787109375,-0.3060302734375,0.7130126953125,0.5010986328125,-0.24462890625,-0.7978515625,0.58056640625,-5.1875,7.25,-5.9375
1.125,-63.0,21.0,13.0,-121.0,-60.0,-21.0,-37.0,-73.0,-0.384765625,-0.30718994140625,0.71234130859375,0.50018310546875,-0.328125,-0.91259765625,0.5498046875,-11.125,0.4375,-1.6875
1.13,-68.0,33.0,50.0,-85.0,-59.0,26.0,15.0,-102.0
1.135,-113.0,4.0,-44.0,-12.0,3.0,53.0,-3.0,-92.0,-0.3839111328125,-0.30718994140625,0.7122802734375,0.50091552734375,-0.203125,-0.90966796875,0.58447265625,3.0,0.375,-1.1875
1.14,-9.0,-21.0,4.0,-94.0,-45.0,-36.0,2.0,28.0,-0.38690185546875,-0.30828857421875,0.70989990234375,0.50128173828125,-0.26708984375,-0.8603515625,0.4873046875,-13.625,7.0625,-2.75
1.145,11.0,9.0,35.0,26.0,26.0,6.0,-5.0,3.0
1.15,-5.0,-18.0,-41.0,23.0,17.0,-5.0,-21.0,-20.0,-0.38873291015625,-0.30908203125,0.70916748046875,0.50042724609375,-0.30810546875,-0.85546875,0.427734375,-5.875,1.5625,-0.625
1.155,20.0,-35.0,-23.0,6.0,-8.0,-17.0,-38.0,16.0,-0.388916015625,-0.31060791015625,0.70880126953125,0.4998779296875,-0.2724609375,-0.8349609375,0.47998046875,-7.0,-5.4375,-3.5
1.16,-45.0,-26.0,-13.0,5.0,2.0,-2.0,-20.0,-19.0,-0.3887939453125,-0.3114013671875,0.70751953125,0.50128173828125,-0.18017578125,-0.81005859375,0.53955078125,-5.0625,5.0625,-8.375
1.165,43.0,22.0,-30.0,-11.0,-4.0,-8.0,30.0,41.0,-0.391845703125,-0.31610107421875,0.7039794921875,0.50091552734375,-0.19580078125,-0.9267578125,0.56640625,-36.25,8.9375,-10.1875
1.17,9.0,-16.0,-3.0,-5.0,-10.0,-14.0,4.0,6.0,-0.39324951171875,-0.316650390625,0.702880859375,0.5009765625,-0.30224609375,-0.7763671875,0.41748046875,-5.9375,3.1875,-6.8125
1.175,4.0,1.0,28.0,17.0,4.0,27.0,41.0,51.0,-0.394775390625,-0.31866455078125,0.702392578125,0.49920654296875,-0.3056640625,-0.81298828125,0.4716796875,-17.6875,-4.375,-0.9375
1.18,-42.0,24.0,13.0,1.0,-12.0,-25.0,-19.0,1.0,-0.3951416015625,-0.3216552734375,0.70135498046875,0.4984130859375,-0.20166015625,-0.86962890625,0.4755859375,-15.6875,-5.375,-3.5
1.185,7.0,-2.0,-6.0,-10.0,0.0,-6.0,-14.0,-9.0,-0.3955078125,-0.3238525390625,0.6998291015625,0.4989013671875,-0.19384765625,-0.86328125,0.52490234375,-13.9375,1.5,-8.25
1.19,4.0,-9.0,-35.0,10.0,3.0,3.0,5.0,6.0,-0.39794921875,-0.32611083984375,0.69683837890625,0.49969482421875,-0.232421875,-0.869140625,0.5439453125,-12.0,9.0,-3.8125
1.195,4.0,16.0,17.0,26.0,7.0,2.0,1.0,1.0,-0.401611328125,-0.3289794921875,0.6943359375,0.4984130859375,-0.31884765625,-0.79931640625,0.4404296875,-20.375,-0.625,-3.5
1.2,-3.0,-4.0,-24.0,-25.0,-9.0,-3.0,-1.0,1.0
1.205,-27.0,22.0,-4.0,-12.0,-13.0,-7.0,-8.0,-9.0,-0.40374755859375,-0.3326416015625,0.69342041015625,0.4954833984375,-0.28076171875,-0.86474609375,0.46142578125,-29.9375,-6.9375,1.625
1.21,27.0,9.0,4.0,3.0,-2.0,-2.0,1.0,4.0,-0.40576171875,-0.34112548828125,0.69140625,0.49090576171875,-0.1962890625,-1.068359375,0.46484375,-15.4375,-7.3125,2.375
1.215,2.0,-19.0,-63.0,-17.0,-4.0,4.0,10.0,2.0
1.22,-4.0,-18.0,-8.0,25.0,1.0,-3.0,0.0,4.0,-0.405517578125,-0.3406982421875,0.6912841796875,0.49151611328125,-0.2060546875,-1.015625,0.45458984375,6.9375,2.375,1.3125
1.225,-1.0,10.0,23.0,-24.0,-8.0,-3.0,-3.0,-11.0,-0.403564453125,-0.33740234375,0.69232177734375,0.493896484375,-0.24658203125,-0.86181640625,0.4365234375,26.625,2.75,-4.125
1.23,4.0,-7.0,-25.0,-25.0,-7.0,-7.0,-6.0,7.0,-0.40277099609375,-0.33648681640625,0.6934814453125,0.4935302734375,-0.24609375,-0.841796875,0.45166015625,-5.1875,-6.5,1.75
1.235,12.0,14.0,57.0,12.0,3.0,-5.0,-4.0,0.0
1.24,1.0,-17.0,-35.0,3.0,0.0,-4.0,-5.0,-5.0,-0.40325927734375,-0.33905029296875,0.6929931640625,0.49212646484375,-0.19091796875,-0.90966796875,0.466796875,-15.625,-5.5,1.875
1.245,-5.0,-11.0,12.0,4.0,-6.0,-4.0,-5.0,-5.0,-0.4022216796875,-0.33917236328125,0.6934814453125,0.4921875,-0.19189453125,-0.91748046875,0.48828125,2.5625,-3.75,1.6875
1.25,-10.0,-3.0,-16.0,-22.0,-2.0,0.0,-2.0,-11.0,-0.40106201171875,-0.3387451171875,0.69366455078125,0.49322509765625,-0.18310546875,-0.89794921875,0.47998046875,6.4375,-0.25,-1.9375
1.255,-23.0,0.0,35.0,18.0,-3.0,-2.0,-4.0,-3.0,-0.400390625,-0.3385009765625,0.69305419921875,0.4947509765625,-0.19775390625,-0.83544921875,0.458984375,3.6875,3.375,-7.5625
1.26,9.0,-12.0,-30.0,-26.0,-8.0,-1.0,1.0,-5.0,-0.39996337890625,-0.3389892578125,0.6925048828125,0.49554443359375,-0.20947265625,-0.83984375,0.4248046875,0.8125,-0.5,-6.8125
1.265,3.0,-3.0,31.0,34.0,3.0,-1.0,-1.0,4.0,-0.39874267578125,-0.33929443359375,0.69232177734375,0.4964599609375,-0.18701171875,-0.84521484375,0.4423828125,3.8125,-2.75,-5.75
1.27,2.0,-8.0,-53.0,-44.0,-10.0,-5.0,-3.0,1.0,-0.39837646484375,-0.33953857421875,0.69085693359375,0.4986572265625,-0.1904296875,-0.8701171875,0.47412109375,0.6875,5.125,-6.875
1.275,2.0,27.0,15.0,26.0,6.0,2.0,-1.0,6.0
1.28,-26.0,-10.0,7.0,1.0,-4.0,-4.0,-1.0,-1.0,-0.39801025390625,-0.33917236328125,0.69012451171875,0.50018310546875,-0.21630859375,-0.85693359375,0.455078125,3.9375,4.0,-8.4375
1.285,8.0,-10.0,3.0,2.0,-1.0,-2.0,-1.0,-14.0,-0.39801025390625,-0.34075927734375,0.6884765625,0.50146484375,-0.2021484375,-0.88232421875,0.4677734375,-4.75,1.125,-6.6875
1.29,-3.0,-21.0,10.0,26.0,7.0,-1.0,0.0,-9.0
1.295,6.0,-10.0,1.0,-21.0,-4.0,0.0,1.0,-3.0,-0.3983154296875,-0.34161376953125,0.6873779296875,0.50213623046875,-0.22021484375,-0.916015625,0.4794921875,-5.375,2.5625,-7.5
1.3,-3.0,14.0,-14.0,-65.0,-20.0,-8.0,-5.0,-1.0,-0.399169921875,-0.342529296875,0.686279296875,0.50238037109375,-0.251953125,-0.91748046875,0.46728515625,-7.5,2.1875,-6.8125
1.305,5.0,-7.0,-1.0,27.0,9.0,10.0,8.0,3.0,-0.40032958984375,-0.34326171875,0.68634033203125,0.50079345703125,-0.24609375,-0.91162109375,0.40625,0.3125,-3.8125,2.125
1.31,1.0,1.0,-38.0,-5.0,-2.0,-7.0,-5.0,-6.0
1.315,-12.0,11.0,45.0,18.0,-2.0,-3.0,-5.0,-4.0,-0.4002685546875,-0.3431396484375,0.6864013671875,0.50091552734375,-0.2138671875,-0.91064453125,0.451171875,1.9375,0.1875,-0.0625
1.32,1.0,-30.0,-14.0,-4.0,0.0,1.0,2.0,-4.0,-0.40081787109375,-0.342041015625,0.6859130859375,0.5018310546875,-0.2412109375,-0.8974609375,0.45947265625,3.5625,4.1875,-0.4375
1.325,2.0,38.0,1.0,-4.0,-2.0,2.0,3.0,3.0
1.33,-4.0,-17.0,-23.0,-12.0,-4.0,-2.0,-5.0,0.0,-0.40069580078125,-0.34100341796875,0.6866455078125,0.501708984375,-0.234375,-0.865234375,0.443359375,5.625,-0.125,2.9375
1.335,-2.0,-4.0,-41.0,-3.0,-3.0,-1.0,-2.0,2.0,-0.40057373046875,-0.3406982421875,0.68743896484375,0.50079345703125,-0.2265625,-0.849609375,0.474609375,-4.5625,-1.875,0.8125
1.34,3.0,-3.0,1.0,-19.0,-9.0,-4.0,-4.0,-5.0,-0.40106201171875,-0.341552734375,0.687255859375,0.5001220703125,-0.23291015625,-0.90966796875,0.4453125,-5.5,-2.25,0.0625
1.345,-5.0,-20.0,-1.0,4.0,-6.0,-1.0,-5.0,-4.0,-0.40106201171875,-0.34228515625,0.6871337890625,0.499755859375,-0.2353515625,-0.9208984375,0.4296875,-1.5625,-3.6875,-1.375
1.35,0.0,-13.0,9.0,7.0,1.0,-3.0,-2.0,-2.0,-0.39984130859375,-0.34234619140625,0.687744140625,0.49993896484375,-0.22900390625,-0.89990234375,0.4267578125,6.8125,-6.6875,-2.25
1.355,3.0,6.0,4.0,-10.0,-2.0,-2.0,0.0,4.0,-0.398681640625,-0.34246826171875,0.68804931640625,0.50030517578125,-0.197265625,-0.8935546875,0.42626953125,6.1875,-5.0,-2.4375
1.36,1.0,-6.0,-14.0,24.0,-2.0,-2.0,0.0,-1.0,-0.39739990234375,-0.34326171875,0.68743896484375,0.50164794921875,-0.1953125,-0.8779296875,0.458984375,0.75,-0.9375,-4.125
1.365,-11.0,-16.0,-13.0,-7.0,-7.0,-1.0,-3.0,-8.0
1.37,-6.0,3.0,8.0,4.0,0.0,-3.0,-4.0,-4.0,-0.39764404296875,-0.34454345703125,0.6868896484375,0.50128173828125,-0.19189453125,-0.9150390625,0.43896484375,-6.125,-1.8125,-1.4375
1.375,-14.0,8.0,-4.0,-12.0,-5.0,-3.0,0.0,1.0,-0.397705078125,-0.34552001953125,0.68682861328125,0.500732421875,-0.19384765625,-0.916015625,0.4326171875,-3.3125,-3.375,0.875
1.38,-2.0,-16.0,-12.0,2.0,-2.0,-1.0,0.0,-1.0,-0.39715576171875,-0.34539794921875,0.6871337890625,0.50079345703125,-0.1728515625,-0.89794921875,0.45947265625,2.8125,-1.4375,1.75
1.385,5.0,-10.0,-11.0,11.0,3.0,-2.0,-1.0,2.0,-0.39697265625,-0.344970703125,0.68719482421875,0.5010986328125,-0.1865234375,-0.86328125,0.46826171875,1.375,1.6875,0.1875
1.39,8.0,21.0,23.0,-2.0,-6.0,-5.0,-5.0,1.0,-0.39776611328125,-0.3458251953125,0.68670654296875,0.5006103515625,-0.1904296875,-0.90185546875,0.45361328125,-4.5,0.125,1.75
1.395,-3.0,-12.0,-6.0,3.0,3.0,1.0,-2.0,-2.0
1.4,9.0,1.0,-12.0,5.0,14.0,9.0,1.0,2.0,-0.39788818359375,-0.345947265625,0.6868896484375,0.50018310546875,-0.203125,-0.90185546875,0.45751953125,-1.25,-0.9375,2.1875
1.405,-11.0,6.0,13.0,5.0,0.0,-1.0,-1.0,-1.0,-0.39752197265625,-0.345947265625,0.6875,0.49957275390625,-0.22607421875,-0.8798828125,0.46240234375,-1.1875,-2.625,0.0
1.41,3.0,0.0,16.0,-6.0,-7.0,-2.0,-1.0,4.0,-0.39715576171875,-0.3463134765625,0.68756103515625,0.49957275390625,-0.20361328125,-0.892578125,0.470703125,-1.5,-2.5,-1.25
1.415,1.0,1.0,4.0,-3.0,-1.0,-2.0,-2.0,-3.0,-0.39544677734375,-0.34527587890625,0.68853759765625,0.50030517578125,-0.22412109375,-0.90185546875,0.47998046875,8.375,-2.625,-1.0
1.42,9.0,9.0,-9.0,0.0,6.0,-4.0,-8.0,1.0,-0.3948974609375,-0.34466552734375,0.6890869140625,0.50042724609375,-0.2333984375,-0.8828125,0.45849609375,5.4375,-2.625,-0.375
1.425,-7.0,7.0,-2.0,-13.0,-10.0,-4.0,0.0,-3.0,-0.3951416015625,-0.3447265625,0.68927001953125,0.49993896484375,-0.22216796875,-0.888671875,0.46484375,-2.125,-0.9375,1.4375
1.43,10.0,-3.0,-7.0,4.0,-6.0,-5.0,-2.0,2.0,-0.395263671875,-0.3448486328125,0.6893310546875,0.4996337890625,-0.21533203125,-0.88623046875,0.45947265625,-1.6875,-1.25,0.875
1.435,23.0,2.0,2.0,-2.0,-3.0,0.0,16.0,49.0,-0.39459228515625,-0.34503173828125,0.68951416015625,0.49981689453125,-0.1806640625,-0.90234375,0.490234375,0.4375,-2.0,-0.6875
1.44,6.0,-9.0,-6.0,-5.0,-7.0,-6.0,19.0,39.0,-0.393798828125,-0.34466552734375,0.6898193359375,0.50030517578125,-0.1962890625,-0.92578125,0.46875,6.1875,-1.4375,-0.75
1.445,-13.0,20.0,5.0,-13.0,-12.0,2.0,-19.0,-45.0,-0.39349365234375,-0.34320068359375,0.6904296875,0.5006103515625,-0.21337890625,-0.91845703125,0.48779296875,8.25,2.25,3.125
1.45,-24.0,-2.0,-13.0,-6.0,-7.0,-3.0,-11.0,-36.0,-0.39251708984375,-0.34197998046875,0.6912841796875,0.5010986328125,-0.21142578125,-0.86962890625,0.4775390625,9.1875,-1.4375,0.8125
1.455,4.0,9.0,30.0,-9.0,-1.0,0.0,-14.0,-23.0,-0.3922119140625,-0.3419189453125,0.69158935546875,0.50091552734375,-0.201171875,-0.8681640625,0.455078125,1.625,-2.375,0.8125
1.46,-4.0,14.0,9.0,-3.0,-7.0,-5.0,22.0,30.0,-0.39105224609375,-0.34124755859375,0.692138671875,0.50152587890625,-0.1845703125,-0.912109375,0.4697265625,8.8125,0.5,1.625
1.465,21.0,1.0,6.0,4.0,1.0,-2.0,20.0,56.0,-0.38958740234375,-0.33697509765625,0.69403076171875,0.50286865234375,-0.2138671875,-0.84033203125,0.4697265625,10.0,2.25,1.4375
1.47,-16.0,0.0,-3.0,1.0,1.0,-6.0,-12.0,-20.0
1.475,-4.0,8.0,-13.0,-10.0,0.0,0.0,5.0,16.0,-0.38970947265625,-0.33673095703125,0.694091796875,0.5029296875,-0.1953125,-0.88525390625,0.48681640625,0.625,1.6875,1.375
1.48,15.0,25.0,5.0,-1.0,-9.0,-3.0,9.0,19.0,-0.38995361328125,-0.33636474609375,0.69384765625,0.50335693359375,-0.19677734375,-0.87744140625,0.4541015625,2.6875,3.5,-0.25
1.485,-13.0,8.0,-5.0,7.0,4.0,-5.0,-12.0,-16.0,-0.39031982421875,-0.33563232421875,0.69390869140625,0.50341796875,-0.2255859375,-0.89892578125,0.4638671875,3.8125,2.625,1.25
1.49,-27.0,-4.0,4.0,-9.0,-4.0,-1.0,16.0,33.0,-0.39056396484375,-0.33575439453125,0.6937255859375,0.50341796875,-0.19677734375,-0.92626953125,0.443359375,2.3125,0.875,1.125
1.495,-10.0,9.0,2.0,-9.0,-5.0,-2.0,-17.0,-6.0,-0.388916015625,-0.33355712890625,0.694580078125,0.50494384765625,-0.169921875,-0.91552734375,0.490234375,19.5625,2.0625,1.0
1.5,-9.0,-41.0,58.0,34.0,7.0,3.0,42.0,56.0,-0.38641357421875,-0.3272705078125,0.6961669921875,0.50885009765625,-0.24609375,-0.8076171875,0.45751953125,13.0625,4.1875,-0.75
1.505,1.0,-29.0,-12.0,-4.0,0.0,0.0,-5.0,-17.0
1.51,2.0,-26.0,-6.0,12.0,0.0,-5.0,-8.0,-17.0,-0.38714599609375,-0.3270263671875,0.6966552734375,0.50775146484375,-0.24609375,-0.87255859375,0.4609375,-0.5,-1.25,5.75
1.515,37.0,16.0,-11.0,40.0,35.0,4.0,15.0,38.0,-0.386962890625,-0.32611083984375,0.6973876953125,0.50750732421875,-0.17822265625,-0.8740234375,0.51025390625,4.625,1.25,6.6875
1.52,34.0,9.0,16.0,50.0,44.0,2.0,-25.0,17.0,-0.3856201171875,-0.32354736328125,0.69830322265625,0.50885009765625,-0.17138671875,-0.818359375,0.56005859375,13.9375,4.9375,2.4375
1.525,3.0,-22.0,22.0,-9.0,-4.0,-2.0,-35.0,-61.0,-0.384765625,-0.32135009765625,0.69940185546875,0.5093994140625,-0.259765625,-0.79150390625,0.51025390625,11.75,-0.125,0.75
1.53,-32.0,2.0,-16.0,-26.0,-21.0,-15.0,-19.0,-31.0,-0.38427734375,-0.3206787109375,0.70086669921875,0.5081787109375,-0.2666015625,-0.84912109375,0.47998046875,5.6875,-7.6875,6.75
1.535,-34.0,27.0,17.0,-17.0,-39.0,-14.0,-22.0,-104.0,-0.38336181640625,-0.3212890625,0.70184326171875,0.50714111328125,-0.1982421875,-0.93115234375,0.49755859375,2.9375,-8.9375,6.1875
1.54,-26.0,-12.0,13.0,-112.0,-67.0,-8.0,-31.0,-37.0,-0.38092041015625,-0.319091796875,0.703369140625,0.50823974609375,-0.18798828125,-0.88818359375,0.52587890625,21.6875,-3.75,2.3125
1.545,-25.0,-26.0,-14.0,11.0,2.0,-13.0,-18.0,-10.0,-0.37860107421875,-0.3160400390625,0.7049560546875,0.5096435546875,-0.2041015625,-0.818359375,0.5244140625,23.9375,-1.0625,1.5625
1.55,-23.0,-14.0,-4.0,-11.0,-4.0,8.0,16.0,9.0,-0.3778076171875,-0.3145751953125,0.7060546875,0.50970458984375,-0.2265625,-0.828125,0.501953125,11.25,-1.75,3.875
1.555,-12.0,8.0,46.0,70.0,44.0,38.0,10.0,-27.0,-0.37744140625,-0.31402587890625,0.70654296875,0.50958251953125,-0.20166015625,-0.861328125,0.54150390625,3.75,-0.4375,3.625
1.56,-20.0,24.0,27.0,-27.0,-25.0,13.0,41.0,-60.0,-0.3770751953125,-0.31292724609375,0.7073974609375,0.50933837890625,-0.255859375,-0.869140625,0.51708984375,8.125,-2.125,3.3125
1.565,-23.0,-28.0,-59.0,-61.0,-16.0,19.0,17.0,-58.0,-0.3758544921875,-0.31103515625,0.70843505859375,0.510009765625,-0.24658203125,-0.85595703125,0.52392578125,15.4375,-1.5625,1.0
1.57,68.0,28.0,23.0,70.0,45.0,-21.0,8.0,62.0,-0.37493896484375,-0.310546875,0.7091064453125,0.51007080078125,-0.205078125,-0.80419921875,0.5244140625,5.5625,-3.375,1.1875
1.575,-96.0,-70.0,-29.0,-34.0,-51.0,1.0,46.0,-103.0,-0.37384033203125,-0.3111572265625,0.70916748046875,0.5103759765625,-0.20751953125,-0.8720703125,0.5439453125,5.3125,-2.375,-0.9375
1.58,-16.0,6.0,8.0,-27.0,-37.0,-8.0,69.0,-75.0
1.585,-41.0,-15.0,0.0,-73.0,-47.0,-14.0,14.0,-106.0,-0.3724365234375,-0.30999755859375,0.70977783203125,0.51123046875,-0.23974609375,-0.83544921875,0.55908203125,10.5,-2.5625,-3.125
1.59,-32.0,13.0,-12.0,-68.0,-39.0,-37.0,-128.0,-39.0,-0.37225341796875,-0.31146240234375,0.70892333984375,0.51165771484375,-0.1904296875,-0.85791015625,0.54150390625,-8.1875,0.3125,-2.6875
1.595,-30.0,-21.0,30.0,54.0,-7.0,20.0,-8.0,10.0
1.6,-43.0,2.0,-48.0,-33.0,-27.0,5.0,57.0,-98.0,-0.372314453125,-0.31207275390625,0.70867919921875,0.51165771484375,-0.2197265625,-0.9345703125,0.560546875,-0.6875,-0.875,-1.0625
1.605,29.0,-18.0,4.0,-3.0,8.0,51.0,-97.0,25.0,-0.37127685546875,-0.31048583984375,0.7093505859375,0.512451171875,-0.2109375,-0.79052734375,0.53515625,10.75,0.1875,-0.4375
1.61,-5.0,45.0,45.0,-34.0,-13.0,0.0,84.0,36.0,-0.37188720703125,-0.31072998046875,0.70892333984375,0.512451171875,-0.2177734375,-0.79638671875,0.5341796875,-4.6875,2.3125,-1.5625
1.615,116.0,88.0,31.0,106.0,105.0,46.0,114.0,127.0,-0.37310791015625,-0.31182861328125,0.70770263671875,0.51251220703125,-0.2080078125,-0.8486328125,0.55859375,-10.875,5.0,-3.5
1.62,19.0,14.0,12.0,14.0,4.0,-23.0,15.0,69.0,-0.37408447265625,-0.31298828125,0.70684814453125,0.5123291015625,-0.25927734375,-0.892578125,0.533203125,-7.5625,0.3125,-4.625
1.625,-104.0,-46.0,-36.0,-30.0,-58.0,-52.0,-104.0,-101.0,-0.3740234375,-0.31298828125,0.70684814453125,0.5123291015625,-0.2041015625,-0.86279296875,0.556640625,0.1875,-0.875,-0.875
1.63,60.0,48.0,23.0,-40.0,-36.0,-28.0,0.0,-71.0,-0.3743896484375,-0.31304931640625,0.7060546875,0.51312255859375,-0.15869140625,-0.82373046875,0.556640625,-3.1875,6.75,-2.25
1.635,-9.0,-46.0,-25.0,-71.0,-37.0,-1.0,9.0,-72.0,-0.3753662109375,-0.312744140625,0.705078125,0.51397705078125,-0.2255859375,-0.85498046875,0.53662109375,-1.4375,7.875,-4.4375
1.64,47.0,28.0,-29.0,7.0,3.0,2.0,115.0,102.0,-0.3768310546875,-0.31292724609375,0.70477294921875,0.51318359375,-0.26416015625,-0.927734375,0.51806640625,-3.4375,2.6875,2.75
1.645,-11.0,-7.0,27.0,18.0,-5.0,4.0,55.0,15.0,-0.377197265625,-0.3118896484375,0.70513916015625,0.5130615234375,-0.21240234375,-0.85595703125,0.56689453125,1.6875,3.9375,4.75
1.65,6.0,17.0,70.0,11.0,8.0,-4.0,9.0,0.0,-0.37939453125,-0.30975341796875,0.7041015625,0.51416015625,-0.27099609375,-0.822265625,0.47021484375,3.0625,7.3125,-0.125
1.655,34.0,-9.0,-29.0,27.0,17.0,-24.0,13.0,32.0
1.66,5.0,10.0,8.0,-17.0,2.0,28.0,17.0,7.0,-0.380859375,-0.31072998046875,0.7037353515625,0.512939453125,-0.2451171875,-0.91259765625,0.50341796875,-7.6875,0.6875,3.875
1.665,-40.0,-8.0,45.0,11.0,-7.0,-10.0,9.0,-4.0,-0.38323974609375,-0.31402587890625,0.70233154296875,0.51104736328125,-0.26611328125,-0.88232421875,0.49658203125,-11.5625,-1.6875,-4.0625
1.67,39.0,-11.0,-46.0,-18.0,2.0,7.0,-27.0,-28.0
1.675,-10.0,11.0,-7.0,-16.0,-18.0,-1.0,-4.0,-29.0,-0.3831787109375,-0.3148193359375,0.70123291015625,0.51214599609375,-0.22509765625,-0.79296875,0.591796875,-9.3125,2.6875,-10.8125
1.68,29.0,-14.0,-34.0,-38.0,-4.0,6.0,20.0,29.0,-0.38446044921875,-0.315673828125,0.69903564453125,0.513671875,-0.1865234375,-0.7568359375,0.57861328125,-14.875,12.125,-11.5
1.685,-8.0,-17.0,-28.0,9.0,-2.0,-18.0,-1.0,22.0,-0.388671875,-0.31890869140625,0.69635009765625,0.51214599609375,-0.28125,-0.77099609375,0.4365234375,-32.6875,7.125,-6.4375
1.69,4.0,7.0,-12.0,-32.0,-10.0,-1.0,2.0,8.0,-0.39227294921875,-0.32476806640625,0.69378662109375,0.50921630859375,-0.1982421875,-0.9248046875,0.4580078125,-41.375,-2.125,-0.5
1.695,17.0,22.0,56.0,29.0,7.0,-6.0,19.0,40.0,-0.390625,-0.32525634765625,0.69403076171875,0.5098876953125,-0.17724609375,-0.9013671875,0.49951171875,13.6875,2.125,0.8125
1.7,2.0,-5.0,-29.0,3.0,5.0,3.0,9.0,9.0,-0.38983154296875,-0.32391357421875,0.6944580078125,0.51068115234375,-0.20556640625,-0.86865234375,0.51416015625,9.1875,1.75,0.1875
1.705,3.0,-9.0,-89.0,-19.0,-4.0,-6.0,1.0,7.0
1.71,-6.0,-17.0,11.0,39.0,3.0,-11.0,-5.0,-3.0,-0.392822265625,-0.3245849609375,0.69488525390625,0.50738525390625,-0.2724609375,-0.80029296875,0.46240234375,-13.9375,-3.5625,5.75
1.715,-8.0,16.0,52.0,1.0,-7.0,-12.0,-8.0,-11.0
1.72,-15.0,-10.0,14.0,-9.0,-2.0,-10.0,-4.0,-6.0,-0.394775390625,-0.327880859375,0.69451904296875,0.5042724609375,-0.26220703125,-0.8505859375,0.45654296875,-25.5,-8.6875,4.9375
1.725,16.0,58.0,88.0,2.0,4.0,5.0,8.0,8.0,-0.39599609375,-0.3319091796875,0.6937255859375,0.50164794921875,-0.224609375,-0.95166015625,0.49609375,-25.875,-9.625,2.25
1.73,10.0,16.0,6.0,4.0,3.0,2.0,-4.0,3.0,-0.3961181640625,-0.33380126953125,0.69329833984375,0.50103759765625,-0.1845703125,-0.95263671875,0.49560546875,-9.125,-3.8125,0.375
1.735,1.0,-15.0,-30.0,7.0,4.0,20.0,14.0,4.0,-0.396484375,-0.33453369140625,0.69281005859375,0.5008544921875,-0.20068359375,-0.958984375,0.4560546875,-1.625,0.6875,0.8125
1.74,-7.0,-12.0,-34.0,-3.0,6.0,2.0,0.0,-5.0,-0.3956298828125,-0.3326416015625,0.69439697265625,0.5006103515625,-0.22412109375,-0.81103515625,0.46337890625,-5.5625,-2.625,1.5
1.745,5.0,10.0,21.0,-16.0,0.0,-2.0,-1.0,5.0,-0.39715576171875,-0.335205078125,0.693603515625,0.498779296875,-0.2265625,-0.8935546875,0.44677734375,-18.5,-3.4375,1.9375
1.75,10.0,18.0,-15.0,-8.0,-4.0,-11.0,-4.0,1.0,-0.39752197265625,-0.33746337890625,0.693115234375,0.4976806640625,-0.2060546875,-0.91259765625,0.4736328125,-13.0,-5.3125,0.0
1.755,-5.0,-8.0,-2.0,14.0,-2.0,-3.0,-2.0,-1.0,-0.3975830078125,-0.3388671875,0.69268798828125,0.497314453125,-0.1923828125,-0.9248046875,0.4765625,-6.875,-2.625,-0.5625
1.76,-3.0,-17.0,7.0,-10.0,-5.0,-13.0,-9.0,0.0,-0.396484375,-0.33782958984375,0.69287109375,0.49859619140625,-0.21728515625,-0.85888671875,0.47900390625,4.6875,1.4375,-3.4375
1.765,17.0,2.0,-28.0,-1.0,0.0,-4.0,-4.0,3.0,-0.3958740234375,-0.3392333984375,0.69287109375,0.49810791015625,-0.2138671875,-0.86328125,0.4619140625,-2.875,-6.0625,-0.4375
1.77,2.0,-12.0,-34.0,-16.0,-1.0,-1.0,1.0,-2.0
1.775,-5.0,1.0,-19.0,-11.0,0.0,-1.0,-1.0,-2.0,-0.39471435546875,-0.339599609375,0.69342041015625,0.498046875,-0.18408203125,-0.875,0.4892578125,0.9375,-5.75,0.25
1.78,-6.0,-5.0,2.0,-10.0,-15.0,-5.0,-2.0,-4.0,-0.39324951171875,-0.33953857421875,0.6934814453125,0.4990234375,-0.16796875,-0.84228515625,0.50146484375,3.5625,-2.0625,-4.4375
1.785,-14.0,-30.0,-81.0,-64.0,-13.0,-4.0,-3.0,-8.0,-0.39312744140625,-0.340576171875,0.69268798828125,0.4996337890625,-0.18701171875,-0.869140625,0.48974609375,-5.625,0.4375,-6.1875
1.79,0.0,31.0,31.0,1.0,3.0,7.0,4.0,-4.0,-0.39312744140625,-0.34417724609375,0.69183349609375,0.49835205078125,-0.20751953125,-0.90673828125,0.43798828125,-4.875,-8.5625,-2.0
1.795,9.0,16.0,40.0,34.0,1.0,-2.0,-6.0,0.0,-0.3917236328125,-0.344482421875,0.69232177734375,0.49853515625,-0.1748046875,-0.89892578125,0.47998046875,3.75,-6.0625,-1.0625
1.8,0.0,13.0,3.0,5.0,5.0,-1.0,1.0,-3.0,-0.3909912109375,-0.3443603515625,0.6917724609375,0.5,-0.17626953125,-0.8701171875,0.48828125,2.875,2.625,-7.3125
1.805,1.0,9.0,14.0,-17.0,-7.0,-7.0,-6.0,0.0,-0.39093017578125,-0.344482421875,0.690673828125,0.50146484375,-0.2216796875,-0.8779296875,0.49658203125,-1.5,4.25,-10.6875
1.81,-14.0,-42.0,-58.0,-19.0,-5.0,-4.0,-8.0,-7.0,-0.39093017578125,-0.34521484375,0.6900634765625,0.50177001953125,-0.22119140625,-0.9033203125,0.4609375,-2.625,-1.25,-6.0
1.815,-5.0,-10.0,1.0,-5.0,-4.0,-3.0,1.0,1.0,-0.390380859375,-0.34552001953125,0.69000244140625,0.5020751953125,-0.19970703125,-0.8828125,0.47607421875,-2.75,0.4375,-3.0
1.82,5.0,6.0,3.0,-3.0,2.0,4.0,7.0,4.0
1.825,1.0,-16.0,-1.0,16.0,7.0,2.0,-1.0,2.0,-0.39068603515625,-0.34637451171875,0.68914794921875,0.50244140625,-0.20263671875,-0.89990234375,0.48486328125,-6.25,1.3125,-5.5
1.83,3.0,5.0,10.0,11.0,3.0,3.0,-5.0,1.0,-0.391357421875,-0.347900390625,0.68817138671875,0.502197265625,-0.20458984375,-0.92041015625,0.453125,-3.0,-2.125,-2.375
1.835,6.0,4.0,9.0,7.0,0.0,6.0,7.0,6.0
1.84,-13.0,-4.0,-9.0,-8.0,-3.0,-4.0,-3.0,-3.0,-0.39105224609375,-0.347900390625,0.68817138671875,0.50244140625,-0.19580078125,-0.896484375,0.453125,1.9375,-0.9375,-1.5
1.845,-3.0,-13.0,-45.0,5.0,1.0,-6.0,-8.0,-3.0,-0.39105224609375,-0.3477783203125,0.68804931640625,0.50274658203125,-0.19189453125,-0.890625,0.46875,0.4375,1.25,-1.4375
1.85,-15.0,-13.0,-3.0,10.0,2.0,2.0,-1.0,-3.0,-0.391845703125,-0.3477783203125,0.6873779296875,0.50299072265625,-0.19091796875,-0.89697265625,0.47509765625,-3.8125,5.25,-1.0625
1.855,5.0,-7.0,-23.0,-7.0,2.0,2.0,-1.0,-1.0,-0.3927001953125,-0.34808349609375,0.6868896484375,0.5028076171875,-0.20703125,-0.89990234375,0.458984375,-4.625,2.875,-0.6875
1.86,-2.0,5.0,-6.0,1.0,-1.0,-4.0,-8.0,-4.0,-0.3934326171875,-0.3482666015625,0.686767578125,0.50225830078125,-0.20947265625,-0.89892578125,0.45361328125,-4.0625,0.8125,2.0625
1.865,-1.0,7.0,7.0,-3.0,-5.0,-5.0,-2.0,-4.0,-0.3939208984375,-0.34844970703125,0.68670654296875,0.5018310546875,-0.201171875,-0.90576171875,0.4599609375,-3.1875,0.5625,1.875
1.87,2.0,-13.0,-19.0,15.0,2.0,-4.0,-5.0,1.0,-0.39422607421875,-0.3482666015625,0.686767578125,0.50164794921875,-0.2021484375,-0.9140625,0.46630859375,-0.1875,1.3125,1.6875
1.875,1.0,0.0,14.0,1.0,8.0,8.0,3.0,2.0,-0.39434814453125,-0.34771728515625,0.6868896484375,0.501708984375,-0.20458984375,-0.916015625,0.4599609375,2.375,1.6875,1.5625
1.88,-10.0,2.0,-5.0,-3.0,-1.0,-1.0,6.0,-1.0,-0.394287109375,-0.3468017578125,0.68731689453125,0.5018310546875,-0.2021484375,-0.88818359375,0.4462890625,5.625,1.375,2.3125
1.885,-3.0,-6.0,-61.0,-11.0,-4.0,-3.0,-4.0,-3.0,-0.39471435546875,-0.34637451171875,0.68768310546875,0.50128173828125,-0.2080078125,-0.88330078125,0.45703125,-2.625,-0.375,1.875
1.89,6.0,13.0,32.0,10.0,2.0,-1.0,1.0,1.0,-0.39501953125,-0.3466796875,0.68768310546875,0.50079345703125,-0.19677734375,-0.9130859375,0.45166015625,-2.4375,-0.4375,2.0625
1.895,-10.0,-4.0,-11.0,-6.0,3.0,-3.0,-2.0,-3.0
1.9,-23.0,-18.0,3.0,3.0,-5.0,3.0,3.0,-1.0,-0.395263671875,-0.34716796875,0.68756103515625,0.50048828125,-0.1904296875,-0.91943359375,0.44140625,-1.75,-0.75,1.5
1.905,8.0,3.0,4.0,10.0,3.0,-3.0,-1.0,3.0,-0.3941650390625,-0.345703125,0.68878173828125,0.500732421875,-0.18896484375,-0.888671875,0.46826171875,6.4375,0.3125,1.875
1.91,3.0,-10.0,-10.0,-7.0,-3.0,-1.0,0.0,6.0
1.915,16.0,17.0,2.0,5.0,3.0,0.0,-5.0,-3.0,-0.393798828125,-0.3447265625,0.68914794921875,0.50115966796875,-0.19482421875,-0.876953125,0.47802734375,5.3125,1.875,1.0625
1.92,-6.0,7.0,-10.0,-3.0,-2.0,-1.0,3.0,4.0,-0.3935546875,-0.34423828125,0.6893310546875,0.50140380859375,-0.203125,-0.86767578125,0.46533203125,2.8125,0.5,-0.3125
1.925,-6.0,-5.0,15.0,0.0,-12.0,-9.0,-17.0,-36.0,-0.39349365234375,-0.34466552734375,0.68963623046875,0.500732421875,-0.21484375,-0.89599609375,0.44384765625,-1.25,-4.1875,1.5625
1.93,-4.0,-2.0,-14.0,-5.0,-1.0,1.0,-6.0,-15.0,-0.39276123046875,-0.3446044921875,0.69036865234375,0.5003662109375,-0.18994140625,-0.91064453125,0.46240234375,3.625,-4.8125,3.1875
1.935,11.0,-13.0,-18.0,-17.0,-7.0,-1.0,5.0,9.0,-0.3907470703125,-0.34295654296875,0.69146728515625,0.50152587890625,-0.1962890625,-0.8642578125,0.47802734375,7.9375,-0.875,-1.8125
1.94,10.0,-5.0,-21.0,-11.0,0.0,1.0,8.0,12.0
1.945,-2.0,2.0,16.0,5.0,-4.0,-5.0,-1.0,34.0,-0.39093017578125,-0.34259033203125,0.69140625,0.501708984375,-0.2109375,-0.8681640625,0.47265625,0.3125,2.125,-0.75
1.95,2.0,12.0,-3.0,-2.0,1.0,1.0,14.0,20.0,-0.39111328125,-0.34246826171875,0.69171142578125,0.50128173828125,-0.216796875,-0.89013671875,0.45361328125,0.75,-1.375,2.1875
1.955,1.0,-10.0,-12.0,-14.0,-9.0,0.0,6.0,8.0,-0.390625,-0.342529296875,0.69189453125,0.5013427734375,-0.19384765625,-0.89697265625,0.474609375,1.625,-2.0625,0.0
1.96,-35.0,-6.0,-3.0,-7.0,-2.0,0.0,-1.0,-13.0,-0.39007568359375,-0.34234619140625,0.6920166015625,0.50164794921875,-0.19384765625,-0.88525390625,0.47216796875,3.1875,-1.0,-1.25
1.965,11.0,8.0,-3.0,-2.0,-1.0,-1.0,-3.0,-11.0,-0.38983154296875,-0.34210205078125,0.692138671875,0.501953125,-0.197265625,-0.8837890625,0.47119140625,2.75,0.0,-0.5
1.97,-2.0,-26.0,-11.0,-10.0,-2.0,-3.0,7.0,30.0,-0.38958740234375,-0.34210205078125,0.6922607421875,0.501953125,-0.19873046875,-0.89794921875,0.45849609375,2.125,-1.4375,0.25
1.975,5.0,3.0,-7.0,-7.0,-8.0,1.0,17.0,26.0,-0.3896484375,-0.3416748046875,0.69244384765625,0.50189208984375,-0.19775390625,-0.90478515625,0.45849609375,3.25,0.875,2.0625
1.98,2.0,-18.0,-4.0,-10.0,-5.0,-4.0,11.0,20.0,-0.38934326171875,-0.34051513671875,0.6929931640625,0.502197265625,-0.21728515625,-0.88232421875,0.46533203125,7.75,1.0,1.3125
1.985,24.0,22.0,16.0,3.0,-4.0,7.0,0.0,22.0,-0.386962890625,-0.3389892578125,0.69378662109375,0.50396728515625,-0.1826171875,-0.8935546875,0.46923828125,7.6875,-1.4375,-4.3125
1.99,9.0,15.0,-3.0,4.0,-3.0,-8.0,-5.0,19.0,-0.3858642578125,-0.33740234375,0.69439697265625,0.5050048828125,-0.19775390625,-0.8740234375,0.4931640625,12.375,0.8125,-0.875
1.995
2.0,-9.0,9.0,-10.0,2.0,-1.0,15.0,-12.0,-21.0,-0.38555908203125,-0.3360595703125,0.69488525390625,0.50543212890625,-0.20703125,-0.85888671875,0.4814453125,8.0,2.3125,1.4375
2.005,17.0,4.0,20.0,-1.0,-5.0,-11.0,-4.0,16.0,-0.38555908203125,-0.3363037109375,0.69488525390625,0.50531005859375,-0.2197265625,-0.8935546875,0.4580078125,0.9375,-2.1875,-1.1875
2.01,12.0,6.0,17.0,-10.0,-1.0,-5.0,-4.0,37.0,-0.384521484375,-0.3355712890625,0.6954345703125,0.505859375,-0.17919921875,-0.9072265625,0.48583984375,9.3125,-1.625,0.875
2.015,-4.0,15.0,12.0,22.0,2.0,-3.0,8.0,-17.0,-0.3824462890625,-0.33282470703125,0.6966552734375,0.50750732421875,-0.15576171875,-0.8515625,0.533203125,19.9375,2.375,1.375
2.02,-27.0,-6.0,37.0,4.0,0.0,4.0,-36.0,-85.0,-0.3817138671875,-0.330322265625,0.69720458984375,0.50897216796875,-0.19873046875,-0.81103515625,0.51708984375,13.6875,6.0,-0.9375
2.025,2.0,15.0,-20.0,-7.0,-1.0,2.0,16.0,-2.0,-0.38275146484375,-0.32977294921875,0.69720458984375,0.508544921875,-0.2373046875,-0.83935546875,0.4853515625,-2.0,3.625,2.25
2.03,19.0,30.0,17.0,4.0,3.0,-12.0,-13.0,28.0,-0.383056640625,-0.3299560546875,0.69732666015625,0.50799560546875,-0.17236328125,-0.89892578125,0.5068359375,4.0625,0.875,1.25
2.035,-4.0,9.0,-29.0,-16.0,-13.0,-5.0,0.0,8.0
2.04,-25.0,-2.0,13.0,-7.0,-8.0,-14.0,-15.0,-15.0,-0.382080078125,-0.3284912109375,0.697509765625,0.50946044921875,-0.17822265625,-0.873046875,0.5244140625,11.1875,3.6875,-2.5625
2.045,3.0,-17.0,2.0,31.0,19.0,1.0,0.0,18.0,-0.381591796875,-0.32623291015625,0.69830322265625,0.51019287109375,-0.22998046875,-0.8193359375,0.509765625,3.9375,-0.8125,0.875
2.05,7.0,43.0,30.0,15.0,-13.0,5.0,47.0,-9.0
2.055,-19.0,-39.0,-57.0,-12.0,-8.0,-10.0,-28.0,14.0,-0.38067626953125,-0.3258056640625,0.69903564453125,0.51019287109375,-0.2041015625,-0.85107421875,0.4619140625,7.6875,-4.75,1.125
2.06,-30.0,4.0,-30.0,49.0,38.0,8.0,-55.0,25.0,-0.3778076171875,-0.3240966796875,0.70098876953125,0.5107421875,-0.197265625,-0.87158203125,0.4931640625,13.9375,-4.75,3.5
2.065,32.0,-12.0,-11.0,48.0,31.0,12.0,32.0,11.0,-0.3759765625,-0.3221435546875,0.70245361328125,0.51123046875,-0.2041015625,-0.875,0.50927734375,18.25,-4.1875,3.3125
2.07,42.0,13.0,-13.0,-37.0,-7.0,-11.0,23.0,-34.0,-0.3739013671875,-0.3199462890625,0.7041015625,0.51190185546875,-0.2021484375,-0.845703125,0.51806640625,19.625,-4.125,3.1875
2.075,-28.0,-55.0,-41.0,-68.0,-13.0,-10.0,-67.0,-66.0,-0.372802734375,-0.31805419921875,0.70556640625,0.5118408203125,-0.2197265625,-0.81005859375,0.51904296875,12.5625,-3.0,5.0
2.08,49.0,6.0,-25.0,116.0,36.0,-2.0,4.0,127.0,-0.37261962890625,-0.318115234375,0.70635986328125,0.5108642578125,-0.23681640625,-0.86376953125,0.52880859375,0.4375,-5.5625,4.1875
2.085,-89.0,-44.0,31.0,-35.0,-15.0,14.0,76.0,-62.0,-0.3720703125,-0.31805419921875,0.70721435546875,0.51007080078125,-0.22705078125,-0.87841796875,0.53173828125,2.9375,-6.125,4.1875
2.09,4.0,-2.0,16.0,24.0,-12.0,14.0,71.0,-31.0,-0.37115478515625,-0.31768798828125,0.70782470703125,0.5101318359375,-0.17431640625,-0.87158203125,0.544921875,5.6875,-2.8125,2.6875
2.095,-90.0,-18.0,-29.0,-57.0,-30.0,-9.0,-23.0,-108.0,-0.3701171875,-0.31640625,0.7086181640625,0.5106201171875,-0.20263671875,-0.8583984375,0.560546875,9.5,-0.75,1.4375
2.1,-4.0,99.0,75.0,40.0,48.0,2.0,-42.0,-2.0,-0.36993408203125,-0.315673828125,0.708984375,0.51068115234375,-0.2275390625,-0.83203125,0.53515625,4.1875,0.0,0.75
2.105,102.0,57.0,59.0,68.0,6.0,4.0,3.0,69.0,-0.369384765625,-0.31591796875,0.708984375,0.51092529296875,-0.220703125,-0.84228515625,0.53955078125,0.9375,-3.25,-3.4375
2.11,80.0,-29.0,-38.0,-39.0,-23.0,-21.0,-30.0,114.0,-0.369384765625,-0.31671142578125,0.70855712890625,0.51104736328125,-0.21142578125,-0.849609375,0.52001953125,-2.625,-1.5625,-3.6875
2.115,-57.0,-52.0,-25.0,-81.0,-32.0,1.0,46.0,-57.0,-0.36749267578125,-0.31646728515625,0.70794677734375,0.51336669921875,-0.17919921875,-0.826171875,0.53515625,1.1875,1.0625,-6.125
2.12,-53.0,50.0,36.0,41.0,43.0,29.0,78.0,9.0
2.125,-49.0,-49.0,-50.0,-60.0,-41.0,-6.0,-57.0,-10.0,-0.3677978515625,-0.31707763671875,0.707763671875,0.5130615234375,-0.24462890625,-0.8486328125,0.52490234375,-3.4375,-2.625,-2.625
2.13,62.0,30.0,-41.0,-19.0,18.0,-11.0,12.0,-16.0,-0.36572265625,-0.31805419921875,0.70751953125,0.5142822265625,-0.16064453125,-0.86328125,0.54931640625,2.0,-1.625,-3.75
2.135,116.0,51.0,57.0,87.0,20.0,-19.0,71.0,127.0,-0.36572265625,-0.317626953125,0.70684814453125,0.51544189453125,-0.19091796875,-0.8173828125,0.56396484375,0.5625,5.125,-5.9375
2.14,69.0,29.0,-43.0,46.0,30.0,-20.0,99.0,107.0,-0.36676025390625,-0.318359375,0.7061767578125,0.51519775390625,-0.232421875,-0.8349609375,0.53466796875,-7.8125,1.5625,-3.1875
2.145,-48.0,-49.0,-38.0,4.0,26.0,-34.0,-57.0,28.0,-0.36676025390625,-0.319091796875,0.70556640625,0.51556396484375,-0.1728515625,-0.90625,0.55224609375,-1.875,0.625,-2.75
2.15,-6.0,44.0,7.0,-54.0,-11.0,19.0,53.0,22.0,-0.36627197265625,-0.31890869140625,0.705078125,0.51666259765625,-0.15625,-0.85400390625,0.578125,1.6875,3.5625,-4.25
2.155,60.0,56.0,45.0,81.0,55.0,1.0,89.0,59.0,-0.36724853515625,-0.3189697265625,0.70428466796875,0.51702880859375,-0.185546875,-0.83642578125,0.501953125,-2.375,5.5,-1.9375
2.16,-69.0,3.0,20.0,34.0,10.0,-15.0,-59.0,-67.0,-0.3685302734375,-0.31927490234375,0.7041015625,0.5162353515625,-0.24755859375,-0.91259765625,0.5126953125,-3.125,1.125,1.875
2.165,-7.0,-38.0,4.0,46.0,26.0,40.0,33.0,-39.0,-0.36834716796875,-0.3187255859375,0.70391845703125,0.516845703125,-0.16015625,-0.84716796875,0.5615234375,2.125,3.9375,-0.25
2.17,-3.0,-9.0,11.0,-30.0,-30.0,-4.0,-15.0,-8.0,-0.3717041015625,-0.32073974609375,0.70147705078125,0.51666259765625,-0.2060546875,-0.96533203125,0.53125,-13.5625,4.9375,-0.0625
2.175,-25.0,-33.0,1.0,14.0,4.0,-1.0,-20.0,-44.0
2.18,-11.0,-12.0,-4.0,-31.0,-15.0,-2.0,-17.0,-45.0,-0.37188720703125,-0.31927490234375,0.70208740234375,0.51654052734375,-0.28076171875,-0.7373046875,0.4013671875,9.5625,-1.0,-0.8125
2.185,-23.0,-17.0,-12.0,-6.0,-12.0,-43.0,-32.0,-17.0,-0.37408447265625,-0.32470703125,0.6990966796875,0.515625,-0.08740234375,-0.82763671875,0.5693359375,-27.9375,3.375,-3.5
2.19,-44.0,-3.0,-2.0,-8.0,-4.0,-1.0,-28.0,-43.0,-0.37762451171875,-0.328125,0.69671630859375,0.51409912109375,-0.2021484375,-0.9638671875,0.55126953125,-30.75,6.4375,-0.8125
2.195,-10.0,-15.0,-32.0,-20.0,3.0,12.0,-9.0,-22.0,-0.38037109375,-0.32952880859375,0.69476318359375,0.5137939453125,-0.18896484375,-0.96923828125,0.55810546875,-17.6875,11.375,-0.875
2.2,-6.0,-17.0,-12.0,-26.0,4.0,3.0,3.0,-3.0,-0.38604736328125,-0.3306884765625,0.6915283203125,0.51318359375,-0.2607421875,-0.8115234375,0.45458984375,-18.6875,8.6875,-1.0625
2.205,7.0,1.0,-23.0,-32.0,-8.0,10.0,-9.0,-21.0,-0.38836669921875,-0.33282470703125,0.69024658203125,0.5118408203125,-0.19140625,-0.8759765625,0.46435546875,-19.1875,3.0625,1.625
2.21,-4.0,10.0,-10.0,0.0,-7.0,-8.0,-9.0,-4.0,-0.38897705078125,-0.333740234375,0.68951416015625,0.51165771484375,-0.16796875,-0.912109375,0.47265625,-5.5,2.0625,0.0
2.215,-11.0,-7.0,-2.0,23.0,1.0,-16.0,-20.0,-13.0,-0.38824462890625,-0.3314208984375,0.68988037109375,0.51324462890625,-0.197265625,-0.7861328125,0.48779296875,4.5625,4.1875,-1.375
2.22,0.0,-7.0,-6.0,-30.0,-8.0,-11.0,-2.0,-2.0
2.225,5.0,-6.0,-2.0,33.0,18.0,13.0,7.0,-2.0,-0.3907470703125,-0.33282470703125,0.6890869140625,0.51153564453125,-0.25244140625,-0.82080078125,0.458984375,-18.625,2.0625,2.3125
2.23,11.0,12.0,23.0,18.0,0.0,-3.0,2.0,0.0,-0.3927001953125,-0.3355712890625,0.6885986328125,0.5089111328125,-0.23046875,-0.84326171875,0.48046875,-25.0625,-5.0,4.125
2.235,-8.0,-57.0,-72.0,-9.0,-12.0,-1.0,6.0,0.0,-0.393798828125,-0.3387451171875,0.6884765625,0.50604248046875,-0.2353515625,-0.9052734375,0.42822265625,-19.0625,-11.6875,4.4375
2.24,-2.0,-16.0,-33.0,19.0,-1.0,-2.0,-3.0,-3.0,-0.3948974609375,-0.34332275390625,0.6875,0.50347900390625,-0.15380859375,-0.97314453125,0.431640625,4.875,-2.1875,-0.25
2.245,5.0,17.0,23.0,11.0,7.0,39.0,26.0,13.0
2.25,-2.0,-1.0,-14.0,-17.0,-5.0,-14.0,-9.0,-1.0,-0.39300537109375,-0.34124755859375,0.68865966796875,0.50482177734375,-0.19482421875,-0.8984375,0.46630859375,19.375,-1.1875,-0.75
2.255,-32.0,15.0,18.0,23.0,2.0,-2.0,-1.0,-6.0,-0.3914794921875,-0.3387451171875,0.68988037109375,0.50604248046875,-0.21142578125,-0.830078125,0.48046875,17.1875,0.5625,0.3125
2.26,-2.0,-3.0,47.0,56.0,4.0,11.0,9.0,0.0,-0.39202880859375,-0.3388671875,0.68975830078125,0.50567626953125,-0.21728515625,-0.8291015625,0.46435546875,-4.5,0.8125,0.1875
2.265,9.0,23.0,30.0,20.0,2.0,-8.0,-2.0,1.0,-0.392578125,-0.34027099609375,0.68963623046875,0.50445556640625,-0.20556640625,-0.8642578125,0.47314453125,-10.75,-4.125,1.8125
2.27,7.0,3.0,-4.0,-4.0,5.0,-2.0,-4.0,-8.0
2.275,-9.0,7.0,25.0,16.0,-1.0,-3.0,-9.0,-7.0,-0.392578125,-0.343017578125,0.689697265625,0.5025634765625,-0.18994140625,-0.9189453125,0.47412109375,-4.3125,-6.375,0.5625
2.28,22.0,25.0,-12.0,-3.0,5.0,-1.0,-1.0,-9.0
2.285,13.0,22.0,57.0,9.0,-1.0,-3.0,-2.0,3.0,-0.392333984375,-0.34375,0.689453125,0.50250244140625,-0.17138671875,-0.90625,0.47802734375,-3.0,-1.5625,-0.875
2.29,-7.0,-5.0,8.0,-5.0,-5.0,-3.0,-3.0,-8.0,-0.38995361328125,-0.34234619140625,0.6904296875,0.50396728515625,-0.19921875,-0.8525390625,0.46240234375,7.875,-3.3125,-1.5625
2.295,-6.0,-24.0,-3.0,6.0,1.0,-7.0,-3.0,-2.0,-0.38934326171875,-0.3428955078125,0.69049072265625,0.50396728515625,-0.1884765625,-0.85009765625,0.4794921875,-1.9375,-3.6875,-2.25
2.3,0.0,-39.0,-66.0,-42.0,-6.0,2.0,2.0,2.0,-0.3887939453125,-0.3433837890625,0.69049072265625,0.504150390625,-0.19140625,-0.859375,0.474609375,-1.25,-3.3125,-3.0625
2.305,15.0,5.0,47.0,36.0,1.0,-1.0,0.0,-10.0,-0.38800048828125,-0.34368896484375,0.69049072265625,0.50445556640625,-0.171875,-0.87939453125,0.50927734375,-0.5625,-2.0,-2.125
2.31,-3.0,-1.0,-21.0,-31.0,-9.0,-2.0,-1.0,-13.0,-0.38720703125,-0.34417724609375,0.69036865234375,0.5050048828125,-0.17333984375,-0.880859375,0.4794921875,0.5,-2.6875,-4.25
2.315,-5.0,11.0,-8.0,3.0,2.0,-1.0,2.0,2.0,-0.38665771484375,-0.34527587890625,0.68975830078125,0.5054931640625,-0.18603515625,-0.88525390625,0.4853515625,-3.75,-2.8125,-7.125
2.32,-10.0,-18.0,0.0,19.0,-2.0,-1.0,-1.0,1.0,-0.38629150390625,-0.34759521484375,0.6890869140625,0.50506591796875,-0.177734375,-0.89599609375,0.45361328125,-3.125,-4.625,-1.4375
2.325,11.0,0.0,9.0,10.0,6.0,0.0,1.0,1.0,-0.3858642578125,-0.3482666015625,0.68890380859375,0.50518798828125,-0.173828125,-0.9111328125,0.48291015625,-1.375,-2.5,-2.4375
2.33,3.0,16.0,-20.0,-18.0,-3.0,-1.0,1.0,2.0,-0.38433837890625,-0.34722900390625,0.68896484375,0.5069580078125,-0.19677734375,-0.90380859375,0.4765625,8.9375,0.25,-2.875
2.335,8.0,17.0,31.0,16.0,6.0,-3.0,-6.0,6.0,-0.38397216796875,-0.34674072265625,0.689208984375,0.50726318359375,-0.1982421875,-0.85888671875,0.45849609375,4.125,-0.6875,-1.375
2.34,-1.0,24.0,30.0,12.0,7.0,3.0,-2.0,0.0,-0.384033203125,-0.34722900390625,0.68914794921875,0.5069580078125,-0.19140625,-0.8701171875,0.47705078125,-3.75,-2.125,-0.875
2.345,2.0,-12.0,4.0,-15.0,-3.0,0.0,3.0,0.0,-0.38421630859375,-0.3477783203125,0.68890380859375,0.5068359375,-0.1845703125,-0.88720703125,0.4755859375,-3.6875,-0.625,-1.3125
2.35,-4.0,-2.0,-6.0,10.0,2.0,-1.0,0.0,-5.0,-0.38458251953125,-0.348876953125,0.68798828125,0.50701904296875,-0.19873046875,-0.9287109375,0.46435546875,-1.9375,-1.3125,-3.0625
2.355,5.0,-10.0,3.0,4.0,0.0,-1.0,-3.0,4.0
2.36,-8.0,-29.0,-10.0,-8.0,-1.0,-2.0,-3.0,4.0,-0.3841552734375,-0.3487548828125,0.6881103515625,0.5072021484375,-0.1826171875,-0.908203125,0.4560546875,3.75,-1.6875,-0.9375
2.365,4.0,7.0,3.0,-14.0,-7.0,-1.0,1.0,3.0,-0.38421630859375,-0.3482666015625,0.68798828125,0.5076904296875,-0.1865234375,-0.88818359375,0.4765625,-3.875,1.6875,0.125
2.37,-4.0,-7.0,-6.0,6.0,0.0,1.0,0.0,-3.0
2.375,-5.0,-3.0,17.0,7.0,1.0,7.0,3.0,5.0,-0.38531494140625,-0.34967041015625,0.687744140625,0.5062255859375,-0.18310546875,-0.91064453125,0.451171875,-2.8125,-2.8125,2.1875
2.38,-28.0,1.0,-9.0,-22.0,-4.0,-2.0,-3.0,-7.0,-0.38507080078125,-0.34979248046875,0.68798828125,0.5059814453125,-0.166015625,-0.91455078125,0.47216796875,0.6875,-2.0,2.0
2.385,-5.0,-6.0,-27.0,-12.0,-2.0,1.0,0.0,-3.0,-0.38433837890625,-0.3485107421875,0.68841552734375,0.5068359375,-0.1806640625,-0.861328125,0.47705078125,3.5625,1.4375,-0.625
2.39,7.0,-15.0,-31.0,-50.0,-9.0,1.0,-2.0,1.0
2.395,17.0,31.0,21.0,30.0,30.0,7.0,-2.0,3.0,-0.3848876953125,-0.35009765625,0.6884765625,0.50518798828125,-0.1826171875,-0.89013671875,0.45068359375,-4.0,-5.0625,1.8125
2.4,-7.0,-1.0,5.0,-15.0,-14.0,-4.0,0.0,0.0,-0.38446044921875,-0.3504638671875,0.68878173828125,0.5048828125,-0.162109375,-0.9189453125,0.458984375,1.25,-3.5,1.8125
2.405,-8.0,0.0,21.0,-4.0,-1.0,-2.0,-4.0,-5.0
2.41,8.0,-7.0,-2.0,4.0,-2.0,-5.0,0.0,2.0,-0.3837890625,-0.3497314453125,0.6893310546875,0.505126953125,-0.1650390625,-0.8916015625,0.4677734375,6.5625,-1.0,1.5625
2.415,3.0,10.0,13.0,-2.0,5.0,1.0,2.0,2.0,-0.38336181640625,-0.34893798828125,0.6898193359375,0.50537109375,-0.185546875,-0.87255859375,0.47802734375,4.875,0.125,0.9375
2.42,1.0,4.0,-9.0,18.0,4.0,0.0,2.0,-3.0,-0.38323974609375,-0.3485107421875,0.690185546875,0.5052490234375,-0.20068359375,-0.87548828125,0.47119140625,2.4375,-1.125,1.0
2.425,-3.0,4.0,-12.0,-14.0,-6.0,-5.0,0.0,19.0,-0.383056640625,-0.34912109375,0.6907958984375,0.504150390625,-0.16943359375,-0.8828125,0.478515625,-2.0625,-2.0,1.8125
2.43,1.0,-17.0,-5.0,12.0,10.0,3.0,-6.0,-1.0
2.435,13.0,0.0,-9.0,20.0,6.0,0.0,2.0,4.0,-0.38330078125,-0.348876953125,0.69091796875,0.50396728515625,-0.1806640625,-0.8916015625,0.45849609375,0.9375,1.0,2.0
2.44,-3.0,14.0,9.0,-1.0,0.0,2.0,5.0,2.0,-0.38232421875,-0.34869384765625,0.69134521484375,0.5042724609375,-0.1708984375,-0.935546875,0.4736328125,7.0,-1.25,0.4375
2.445,9.0,4.0,12.0,13.0,3.0,0.0,31.0,60.0
2.45,-0.380615234375,-0.3465576171875,0.6923828125,0.505615234375,-0.177734375,-0.85546875,0.50244140625,16.25,0.3125,-1.3125
2.455,3.0,-5.0,-15.0,-30.0,-7.0,3.0,19.0,38.0,-0.380615234375,-0.34674072265625,0.69183349609375,0.50616455078125,-0.17138671875,-0.87255859375,0.48388671875,-1.25,2.0,-3.8125
2.46,-2.0,-20.0,-8.0,2.0,-4.0,-1.0,-5.0,-10.0,-0.3814697265625,-0.3470458984375,0.69171142578125,0.5054931640625,-0.2060546875,-0.8701171875,0.4755859375,-5.9375,0.5625,1.5
2.465,2.0,3.0,-46.0,-7.0,3.0,1.0,1.0,4.0,-0.381103515625,-0.34710693359375,0.6925048828125,0.504638671875,-0.185546875,-0.89990234375,0.47216796875,1.375,-5.375,4.9375
2.47,16.0,11.0,9.0,-11.0,-3.0,-6.0,-2.0,-4.0,-0.38092041015625,-0.34759521484375,0.69268798828125,0.50421142578125,-0.1552734375,-0.9130859375,0.4716796875,-0.6875,-2.75,2.6875
2.475,-3.0,0.0,-25.0,-22.0,-5.0,6.0,-1.0,-11.0,-0.3804931640625,-0.34710693359375,0.69268798828125,0.5048828125,-0.169921875,-0.91650390625,0.48828125,5.125,1.6875,-1.5625
2.48,8.0,-2.0,0.0,-3.0,-4.0,-6.0,-6.0,-3.0
2.485,-5.0,-13.0,38.0,11.0,-6.0,-7.0,-9.0,-14.0,-0.3795166015625,-0.3448486328125,0.693115234375,0.50653076171875,-0.16064453125,-0.87451171875,0.474609375,16.625,5.25,-1.25
2.49,6.0,8.0,3.0,13.0,9.0,-1.0,6.0,27.0,-0.37921142578125,-0.34326171875,0.6937255859375,0.507080078125,-0.1953125,-0.8330078125,0.4931640625,7.6875,2.9375,1.0
2.495,-15.0,-2.0,5.0,-6.0,-6.0,11.0,1.0,-24.0,-0.3798828125,-0.3433837890625,0.69354248046875,0.50665283203125,-0.2001953125,-0.86328125,0.48291015625,-4.25,1.0625,0.9375
2.5,-3.0,-12.0,-14.0,-2.0,-4.0,-3.0,-4.0,-3.0,-0.37982177734375,-0.34295654296875,0.6939697265625,0.50653076171875,-0.17919921875,-0.908203125,0.50537109375,2.125,0.25,3.25
2.505,0.0,10.0,9.0,6.0,6.0,3.0,3.0,-8.0,-0.3797607421875,-0.3424072265625,0.6939697265625,0.50689697265625,-0.1669921875,-0.9013671875,0.47216796875,4.8125,2.4375,0.75
2.51,4.0,-7.0,4.0,1.0,-4.0,6.0,12.0,9.0,-0.37939453125,-0.34136962890625,0.69366455078125,0.5081787109375,-0.171875,-0.8828125,0.49462890625,7.0625,5.1875,-3.5625
2.515,18.0,8.0,8.0,1.0,0.0,-3.0,10.0,29.0
2.52,-7.0,-26.0,-18.0,-6.0,-6.0,10.0,8.0,2.0,-0.3790283203125,-0.3399658203125,0.6937255859375,0.5093994140625,-0.18115234375,-0.892578125,0.4970703125,9.6875,5.125,-1.9375
2.525,-2.0,4.0,35.0,2.0,-4.0,-11.0,-31.0,-43.0,-0.378662109375,-0.3385009765625,0.69390869140625,0.5103759765625,-0.171875,-0.85791015625,0.47900390625,9.625,4.5,-0.4375
2.53,4.0,13.0,0.0,-4.0,3.0,1.0,-5.0,-8.0
2.535,7.0,3.0,3.0,-2.0,-2.0,4.0,-12.0,-49.0,-0.37860107421875,-0.33746337890625,0.69390869140625,0.5111083984375,-0.17529296875,-0.89111328125,0.5029296875,6.0,4.5625,0.0
2.54,-9.0,7.0,15.0,10.0,5.0,3.0,-7.0,-6.0,-0.3785400390625,-0.33551025390625,0.6943359375,0.5118408203125,-0.189453125,-0.8701171875,0.4873046875,10.9375,5.5625,2.25
2.545,14.0,-3.0,13.0,28.0,10.0,-5.0,-19.0,-24.0,-0.378662109375,-0.33416748046875,0.6944580078125,0.51251220703125,-0.19921875,-0.87744140625,0.48291015625,-1.0,0.375,-1.9375
2.55,0.0,-13.0,-51.0,-38.0,-9.0,10.0,18.0,14.0,-0.37847900390625,-0.3341064453125,0.69439697265625,0.51275634765625,-0.18505859375,-0.90380859375,0.501953125,2.0625,0.0625,-0.9375
2.555,-36.0,1.0,8.0,-1.0,-1.0,-3.0,-30.0,-53.0,-0.3773193359375,-0.33282470703125,0.69500732421875,0.5135498046875,-0.16015625,-0.88525390625,0.5048828125,12.0625,0.375,0.9375
2.56,10.0,18.0,24.0,19.0,1.0,-5.0,-8.0,-1.0,-0.3763427734375,-0.33099365234375,0.69561767578125,0.5146484375,-0.1865234375,-0.828125,0.541015625,10.3125,2.625,-1.125
2.565,-2.0,37.0,27.0,40.0,28.0,12.0,-3.0,-24.0,-0.37542724609375,-0.32952880859375,0.6964111328125,0.5152587890625,-0.2138671875,-0.8037109375,0.533203125,8.0625,-0.5,-1.0625
2.57,7.0,24.0,7.0,-15.0,-11.0,1.0,17.0,21.0,-0.374755859375,-0.32904052734375,0.6971435546875,0.5150146484375,-0.2119140625,-0.83935546875,0.52685546875,3.0625,-4.125,1.4375
2.575,-0.3739013671875,-0.3291015625,0.69805908203125,0.514404296875,-0.18798828125,-0.84912109375,0.48828125,3.625,-6.8125,3.0
2.58,8.0,-16.0,-56.0,-25.0,-14.0,-7.0,-25.0,-50.0,-0.37310791015625,-0.32928466796875,0.69866943359375,0.51397705078125,-0.169921875,-0.927734375,0.51318359375,4.0625,-5.5,3.3125
2.585,16.0,14.0,3.0,12.0,-10.0,-1.0,-33.0,-40.0,-0.37158203125,-0.32818603515625,0.6998291015625,0.51416015625,-0.171875,-0.90673828125,0.52001953125,13.125,-4.5,3.6875
2.59,-0.3695068359375,-0.3253173828125,0.70135498046875,0.5155029296875,-0.1767578125,-0.83984375,0.53564453125,22.4375,-0.1875,1.6875
2.595,-8.0,-22.0,1.0,-13.0,-2.0,3.0,9.0,-14.0,-0.36871337890625,-0.32391357421875,0.702392578125,0.5155029296875,-0.21337890625,-0.8369140625,0.5048828125,10.625,-2.3125,2.875
2.6,-17.0,10.0,-35.0,-40.0,-30.0,-17.0,-62.0,-30.0,-0.36773681640625,-0.322509765625,0.7034912109375,0.515625,-0.18994140625,-0.8349609375,0.53466796875,10.0625,-2.25,3.625
2.605,-37.0,-25.0,-32.0,-105.0,-31.0,-10.0,-8.0,-3.0,-0.367431640625,-0.3221435546875,0.7039794921875,0.51531982421875,-0.19580078125,-0.86767578125,0.54638671875,2.4375,-1.8125,2.5
2.61,20.0,-7.0,-1.0,17.0,5.0,-7.0,-19.0,61.0,-0.36700439453125,-0.32147216796875,0.7044677734375,0.51544189453125,-0.2119140625,-0.88427734375,0.548828125,5.6875,-1.0,0.8125
2.615,85.0,7.0,-18.0,42.0,32.0,4.0,45.0,110.0,-0.36614990234375,-0.32049560546875,0.70513916015625,0.5157470703125,-0.19580078125,-0.84619140625,0.52294921875,8.875,-2.0625,0.9375
2.62,1.0,-27.0,-32.0,-24.0,-21.0,-22.0,-38.0,-72.0,-0.36492919921875,-0.31964111328125,0.70556640625,0.51654052734375,-0.16748046875,-0.82666015625,0.544921875,8.5625,-0.9375,-1.5625
2.625,9.0,23.0,53.0,-21.0,-28.0,10.0,20.0,-9.0,-0.364501953125,-0.31951904296875,0.70550537109375,0.51702880859375,-0.17333984375,-0.84130859375,0.5244140625,3.5,-0.0625,-1.6875
2.63,-8.0,38.0,-10.0,-22.0,-22.0,-1.0,70.0,-2.0,-0.364013671875,-0.31915283203125,0.70562744140625,0.51739501953125,-0.181640625,-0.841796875,0.54150390625,3.75,-0.0625,-1.1875
2.635,-53.0,-40.0,8.0,16.0,4.0,0.0,46.0,-9.0,-0.36376953125,-0.31878662109375,0.70562744140625,0.51776123046875,-0.18701171875,-0.84619140625,0.52099609375,4.25,0.125,-1.0625
2.64,76.0,-63.0,-19.0,26.0,53.0,24.0,89.0,82.0,-0.36370849609375,-0.319091796875,0.7054443359375,0.51788330078125,-0.1787109375,-0.841796875,0.53662109375,-1.125,-0.125,-1.5
2.645,-18.0,51.0,40.0,27.0,-11.0,-3.0,-128.0,-128.0,-0.36358642578125,-0.31939697265625,0.7049560546875,0.5184326171875,-0.17529296875,-0.8994140625,0.55908203125,0.6875,1.0,-3.125
2.65,-15.0,2.0,-71.0,16.0,2.0,5.0,44.0,-116.0,-0.36346435546875,-0.31866455078125,0.70526123046875,0.51861572265625,-0.22412109375,-0.8369140625,0.529296875,4.6875,-0.1875,-0.9375
2.655,-25.0,35.0,64.0,22.0,-3.0,-13.0,16.0,-59.0,-0.36297607421875,-0.31915283203125,0.705322265625,0.5185546875,-0.189453125,-0.8515625,0.54541015625,-0.25,-3.625,-1.875
2.66,-18.0,-12.0,23.0,-12.0,-24.0,21.0,43.0,76.0,-0.36273193359375,-0.31964111328125,0.704833984375,0.51910400390625,-0.16259765625,-0.80859375,0.5439453125,-2.5,0.4375,-4.25
2.665,-55.0,-11.0,-6.0,-83.0,-60.0,-4.0,-23.0,-39.0
2.67,-55.0,17.0,-23.0,84.0,49.0,26.0,-8.0,-108.0,-0.3626708984375,-0.31951904296875,0.70440673828125,0.51971435546875,-0.1982421875,-0.87451171875,0.56591796875,0.9375,1.5,-4.125
2.675,78.0,8.0,26.0,102.0,68.0,17.0,37.0,109.0,-0.36273193359375,-0.31982421875,0.7041015625,0.51995849609375,-0.193359375,-0.8369140625,0.53759765625,-1.6875,0.0,-3.125
2.68,81.0,40.0,7.0,52.0,69.0,19.0,27.0,109.0,-0.362548828125,-0.31988525390625,0.7039794921875,0.5201416015625,-0.1865234375,-0.8828125,0.55615234375,1.1875,-0.625,-1.625
2.685,17.0,31.0,57.0,54.0,50.0,10.0,-48.0,44.0,-0.36328125,-0.32098388671875,0.70355224609375,0.51959228515625,-0.177734375,-0.8408203125,0.5087890625,-6.875,-0.5,0.3125
2.69,66.0,-30.0,-62.0,-44.0,-20.0,43.0,58.0,87.0,-0.3636474609375,-0.3218994140625,0.70294189453125,0.51959228515625,-0.17724609375,-0.85888671875,0.54931640625,-6.125,0.0625,-2.8125
2.695,8.0,27.0,14.0,1.0,-18.0,-14.0,-37.0,-2.0,-0.36419677734375,-0.32208251953125,0.70233154296875,0.5198974609375,-0.1875,-0.88330078125,0.548828125,-2.4375,3.4375,-2.4375
2.7,5.0,-6.0,-19.0,33.0,17.0,22.0,12.0,14.0,-0.365234375,-0.32269287109375,0.7017822265625,0.51959228515625,-0.2041015625,-0.88671875,0.5146484375,-4.5,1.6875,-0.75
2.705,-33.0,-4.0,22.0,-25.0,-25.0,-7.0,-25.0,-8.0,-0.36614990234375,-0.32373046875,0.701171875,0.5191650390625,-0.2109375,-0.892578125,0.52197265625,-6.875,-0.0625,-1.75
2.71,-10.0,-16.0,3.0,-24.0,-21.0,-19.0,8.0,-5.0,-0.36688232421875,-0.32501220703125,0.7000732421875,0.51922607421875,-0.1875,-0.81298828125,0.54736328125,-11.75,1.375,-6.0625
2.715,-17.0,10.0,1.0,7.0,-2.0,-4.0,9.0,-3.0,-0.37286376953125,-0.33258056640625,0.6943359375,0.51788330078125,-0.1748046875,-0.84130859375,0.5400390625,-38.4375,6.375,-8.0625
2.72,-3.0,-3.0,-13.0,-17.0,-6.0,13.0,14.0,2.0
2.725,-17.0,-3.0,43.0,7.0,-7.0,-14.0,-14.0,-16.0,-0.37591552734375,-0.336181640625,0.69134521484375,0.517333984375,-0.158203125,-0.89453125,0.54541015625,-32.125,7.875,-7.4375
2.73,-2.0,-14.0,-3.0,2.0,6.0,1.0,9.0,3.0,-0.3785400390625,-0.3380126953125,0.68927001953125,0.51702880859375,-0.1640625,-0.89306640625,0.533203125,-21.4375,9.875,-3.0
2.735,-5.0,-50.0,-68.0,-15.0,-10.0,9.0,8.0,5.0,-0.37957763671875,-0.33837890625,0.68865966796875,0.516845703125,-0.19140625,-0.85888671875,0.48779296875,-6.4375,3.375,-1.0
2.74,0.0,-1.0,-16.0,-16.0,-5.0,-14.0,-6.0,-4.0,-0.37957763671875,-0.3394775390625,0.68829345703125,0.5166015625,-0.15234375,-0.90576171875,0.4716796875,-3.375,-2.4375,-0.875
2.745,-6.0,8.0,5.0,5.0,5.0,5.0,8.0,2.0,-0.37994384765625,-0.34051513671875,0.687744140625,0.51641845703125,-0.15234375,-0.89501953125,0.453125,-4.125,-0.5625,-0.9375
2.75,-5.0,4.0,24.0,35.0,6.0,-5.0,-15.0,4.0,-0.380615234375,-0.34112548828125,0.687255859375,0.51611328125,-0.1630859375,-0.8896484375,0.4853515625,-5.625,1.75,0.5
2.755,3.0,-7.0,-21.0,-8.0,-6.0,9.0,13.0,3.0,-0.3828125,-0.34320068359375,0.68609619140625,0.5146484375,-0.1845703125,-0.89453125,0.44970703125,-18.0,1.375,1.8125
2.76,-29.0,-5.0,4.0,-18.0,-3.0,-18.0,-8.0,-1.0,-0.384033203125,-0.34375,0.68603515625,0.51348876953125,-0.20947265625,-0.86083984375,0.46923828125,-8.5625,-0.0625,3.125
2.765,6.0,26.0,48.0,26.0,-15.0,-15.0,-10.0,0.0,-0.38507080078125,-0.3448486328125,0.6859130859375,0.5120849609375,-0.2099609375,-0.884765625,0.47021484375,-10.5625,-3.0,3.0625
2.77,-10.0,-16.0,-19.0,-21.0,-4.0,-5.0,-5.0,0.0,-0.38555908203125,-0.34600830078125,0.68560791015625,0.5113525390625,-0.1728515625,-0.8671875,0.49853515625,-10.4375,-1.6875,0.375
2.775,-3.0,-27.0,-67.0,-38.0,-3.0,1.0,0.0,-1.0,-0.38604736328125,-0.34759521484375,0.686279296875,0.509033203125,-0.1806640625,-0.9306640625,0.45556640625,0.9375,-5.0625,7.875
2.78,8.0,2.0,34.0,20.0,10.0,13.0,13.0,7.0
2.785,20.0,5.0,-17.0,-3.0,8.0,0.0,0.0,3.0,-0.3851318359375,-0.3463134765625,0.68743896484375,0.509033203125,-0.17529296875,-0.85888671875,0.466796875,9.25,-2.5625,4.5625
2.79,-1.0,-14.0,-3.0,26.0,-3.0,-7.0,-3.0,-1.0,-0.38623046875,-0.34759521484375,0.68743896484375,0.50732421875,-0.2099609375,-0.88330078125,0.4619140625,-7.875,-3.3125,2.0625
2.795,-1.0,-5.0,6.0,-18.0,-6.0,-1.0,-7.0,0.0
2.8,-11.0,-32.0,-27.0,-5.0,-6.0,0.0,-4.0,-6.0,-0.3858642578125,-0.3485107421875,0.6878662109375,0.50640869140625,-0.1708984375,-0.89501953125,0.4599609375,-3.0,-6.75,3.0625
2.805,1.0,-8.0,8.0,-5.0,-5.0,-2.0,0.0,-2.0,-0.38525390625,-0.34820556640625,0.688720703125,0.50592041015625,-0.19384765625,-0.8779296875,0.4765625,2.9375,-1.625,0.0
2.81,2.0,15.0,23.0,-6.0,-1.0,0.0,-9.0,-3.0,-0.384765625,-0.34820556640625,0.68878173828125,0.5062255859375,-0.17724609375,-0.880859375,0.48486328125,1.125,-1.3125,-1.6875
2.815,-4.0,-3.0,-25.0,-4.0,-3.0,-1.0,0.0,-7.0
2.82,-5.0,0.0,16.0,-20.0,-5.0,6.0,8.0,2.0,-0.38421630859375,-0.34808349609375,0.689208984375,0.506103515625,-0.1806640625,-0.8720703125,0.47607421875,1.6875,-3.0625,0.625
2.825,-3.0,-14.0,-22.0,0.0,4.0,-1.0,-1.0,-3.0,-0.38323974609375,-0.348876953125,0.6895751953125,0.50579833984375,-0.16015625,-0.8779296875,0.49267578125,-0.875,-2.0625,-0.875
2.83,-1.0,2.0,40.0,2.0,-9.0,-7.0,-9.0,-3.0,-0.38262939453125,-0.348876953125,0.68951416015625,0.50640869140625,-0.17431640625,-0.86572265625,0.48095703125,1.6875,-0.9375,-3.875
2.835,0.0,-8.0,13.0,15.0,11.0,-3.0,-2.0,-2.0,-0.38153076171875,-0.3489990234375,0.68939208984375,0.50726318359375,-0.15478515625,-0.87255859375,0.50244140625,2.1875,-1.6875,-5.0625
2.84,-6.0,-12.0,-24.0,-2.0,-1.0,-5.0,-5.0,-4.0,-0.38079833984375,-0.34930419921875,0.68914794921875,0.50799560546875,-0.15185546875,-0.857421875,0.47900390625,0.9375,-0.9375,-4.8125
2.845,1.0,-9.0,2.0,19.0,13.0,26.0,16.0,5.0,-0.381103515625,-0.35064697265625,0.68829345703125,0.5079345703125,-0.16259765625,-0.904296875,0.462890625,-6.875,-0.9375,-3.75
2.85,-5.0,2.0,18.0,-24.0,-11.0,-2.0,1.0,-4.0,-0.38092041015625,-0.35150146484375,0.68817138671875,0.5076904296875,-0.173828125,-0.890625,0.47314453125,-3.8125,-3.5,-2.125
2.855,-6.0,4.0,19.0,9.0,-2.0,4.0,9.0,3.0,-0.38037109375,-0.35186767578125,0.68817138671875,0.5078125,-0.1552734375,-0.9140625,0.47900390625,0.8125,-2.5625,-1.0625
2.86,4.0,2.0,-6.0,-13.0,-1.0,2.0,2.0,4.0,-0.3797607421875,-0.35223388671875,0.68743896484375,0.509033203125,-0.17529296875,-0.91552734375,0.4794921875,-1.3125,1.375,-5.1875
2.865,-3.0,-14.0,-3.0,18.0,1.0,-10.0,-5.0,-3.0
2.87,-8.0,-4.0,-13.0,-8.0,-2.0,7.0,5.0,-1.0,-0.3802490234375,-0.352783203125,0.68701171875,0.5087890625,-0.19873046875,-0.8828125,0.45654296875,-4.375,-0.6875,-2.5625
2.875,1.0,-14.0,-9.0,-1.0,-3.0,-3.0,-7.0,-2.0,-0.3802490234375,-0.35333251953125,0.68701171875,0.5084228515625,-0.18115234375,-0.8984375,0.46630859375,-2.375,-2.9375,-0.5625
2.88,-4.0,18.0,-4.0,-16.0,-2.0,-4.0,-3.0,-2.0,-0.3798828125,-0.3536376953125,0.68682861328125,0.5087890625,-0.146484375,-0.89306640625,0.47607421875,-0.125,-0.8125,-2.0625
2.885,-1.0,3.0,-6.0,-2.0,-1.0,1.0,6.0,1.0,-0.3797607421875,-0.35333251953125,0.68658447265625,0.5093994140625,-0.16650390625,-0.90966796875,0.4853515625,2.1875,2.5625,-2.625
2.89,-14.0,23.0,-8.0,11.0,6.0,-1.0,-6.0,-4.0,-0.37982177734375,-0.3531494140625,0.68621826171875,0.50994873046875,-0.17626953125,-0.90771484375,0.47216796875,1.25,2.125,-3.25
2.895,-1.0,4.0,1.0,-3.0,-5.0,-8.0,-3.0,-3.0,-0.38018798828125,-0.35308837890625,0.68603515625,0.50994873046875,-0.17529296875,-0.88427734375,0.47607421875,0.3125,-0.6875,-0.125
2.9,-2.0,-4.0,-3.0,-4.0,0.0,-2.0,-9.0,-1.0,-0.38018798828125,-0.35308837890625,0.68609619140625,0.50994873046875,-0.15576171875,-0.88818359375,0.48193359375,0.125,0.625,-0.5625
2.905,1.0,-15.0,-39.0,-11.0,-3.0,-3.0,-3.0,1.0
2.91,6.0,18.0,-11.0,-16.0,-6.0,-2.0,0.0,-1.0,-0.38037109375,-0.35345458984375,0.6856689453125,0.51019287109375,-0.15380859375,-0.900390625,0.47998046875,-2.625,1.5625,-1.625
2.915,4.0,-28.0,-4.0,12.0,1.0,-4.0,0.0,-7.0,-0.38116455078125,-0.3538818359375,0.685302734375,0.509765625,-0.1787109375,-0.92041015625,0.44970703125,-3.8125,0.9375,0.6875
2.92,-34.0,-6.0,14.0,-6.0,-4.0,4.0,3.0,-7.0
2.925,6.0,-1.0,28.0,2.0,-4.0,-3.0,-3.0,0.0,-0.3814697265625,-0.35394287109375,0.68536376953125,0.50933837890625,-0.16748046875,-0.904296875,0.45458984375,-0.6875,0.0,2.25
2.93,-1.0,2.0,-13.0,-12.0,-5.0,-10.0,-15.0,-2.0,-0.38153076171875,-0.35369873046875,0.68560791015625,0.5091552734375,-0.1640625,-0.88427734375,0.46875,0.625,0.25,2.25
2.935,1.0,17.0,20.0,11.0,2.0,1.0,2.0,-4.0,-0.3819580078125,-0.35357666015625,0.68548583984375,0.50909423828125,-0.1650390625,-0.87744140625,0.47509765625,-2.1875,2.125,1.0625
2.94,-5.0,2.0,-4.0,-6.0,4.0,1.0,-2.0,-1.0
2.945,6.0,12.0,-44.0,0.0,-1.0,-4.0,-4.0,4.0,-0.38299560546875,-0.35369873046875,0.6854248046875,0.50830078125,-0.18212890625,-0.90869140625,0.4521484375,-2.25,0.375,2.1875
2.95,14.0,8.0,32.0,0.0,-4.0,-5.0,-4.0,-4.0,-0.38299560546875,-0.35400390625,0.685546875,0.5079345703125,-0.17138671875,-0.90869140625,0.453125,-0.3125,-2.3125,1.375
2.955,-1.0,-31.0,-18.0,15.0,-1.0,-5.0,0.0,-5.0
2.96,10.0,-16.0,-29.0,14.0,12.0,-6.0,-2.0,4.0,-0.3824462890625,-0.3533935546875,0.6861572265625,0.50799560546875,-0.16796875,-0.892578125,0.4599609375,5.6875,-1.3125,1.875
2.965,-21.0,-15.0,7.0,8.0,4.0,0.0,-2.0,0.0,-0.38226318359375,-0.3525390625,0.68646240234375,0.50823974609375,-0.16796875,-0.8828125,0.474609375,4.4375,1.5,1.0625
2.97,-5.0,-12.0,-11.0,-9.0,-9.0,-4.0,-6.0,-11.0,-0.3824462890625,-0.3519287109375,0.68646240234375,0.50860595703125,-0.16845703125,-0.89111328125,0.4736328125,2.375,3.5,0.4375
2.975,3.0,20.0,16.0,1.0,-2.0,10.0,5.0,2.0,-0.3828125,-0.3514404296875,0.68646240234375,0.508544921875,-0.17724609375,-0.88671875,0.4560546875,1.1875,2.25,1.75
2.98,7.0,1.0,0.0,4.0,4.0,0.0,4.0,6.0,-0.3826904296875,-0.35150146484375,0.68707275390625,0.50787353515625,-0.166015625,-0.896484375,0.466796875,1.25,-1.125,2.6875
2.985,0.0,12.0,27.0,16.0,0.0,-11.0,-16.0,-12.0,-0.38232421875,-0.350830078125,0.68743896484375,0.50811767578125,-0.169921875,-0.88916015625,0.478515625,4.375,0.375,0.9375
2.99,20.0,0.0,-13.0,-5.0,3.0,-6.0,-17.0,-24.0,-0.381591796875,-0.3502197265625,0.687744140625,0.5086669921875,-0.16357421875,-0.91064453125,0.46044921875,3.6875,-1.8125,-0.5
2.995,5.0,3.0,-10.0,-3.0,-4.0,-7.0,-4.0,3.0,-0.38031005859375,-0.3489990234375,0.68853759765625,0.5093994140625,-0.15185546875,-0.92041015625,0.4921875,11.875,-1.0625,1.125
3.0,-5.0,7.0,22.0,4.0,4.0,-6.0,5.0,12.0,-0.37884521484375,-0.3465576171875,0.689697265625,0.51055908203125,-0.166015625,-0.8408203125,0.48095703125,17.375,1.3125,0.875
3.005,-10.0,-4.0,7.0,-12.0,4.0,9.0,7.0,-6.0,-0.37860107421875,-0.3458251953125,0.69012451171875,0.51068115234375,-0.19287109375,-0.83203125,0.46826171875,3.8125,-0.4375,0.125
3.01,-4.0,10.0,-1.0,19.0,-1.0,0.0,6.0,-7.0,-0.37908935546875,-0.34710693359375,0.689453125,0.51031494140625,-0.1591796875,-0.89697265625,0.494140625,-9.0,-0.3125,-1.5625
3.015,-5.0,-15.0,-20.0,-7.0,-2.0,-8.0,-1.0,30.0,-0.37921142578125,-0.34765625,0.68951416015625,0.50982666015625,-0.17041015625,-0.923828125,0.46728515625,7.375,-2.5625,1.3125
3.02,-26.0,-26.0,-19.0,-15.0,-8.0,7.0,-14.0,-53.0
3.025,-10.0,2.0,29.0,29.0,5.0,-6.0,-2.0,0.0,-0.378173828125,-0.3458251953125,0.69036865234375,0.5106201171875,-0.1513671875,-0.884765625,0.486328125,13.5,1.625,2.4375
3.03,-12.0,-12.0,0.0,-4.0,-4.0,3.0,-21.0,-53.0,-0.3768310546875,-0.34417724609375,0.69122314453125,0.5115966796875,-0.1826171875,-0.880859375,0.49658203125,4.25,-2.875,-0.375
3.035,5.0,-45.0,28.0,10.0,16.0,6.0,13.0,25.0
3.04,19.0,12.0,-9.0,-6.0,3.0,-1.0,-4.0,-18.0,-0.3768310546875,-0.34417724609375,0.69122314453125,0.51153564453125,-0.17431640625,-0.88671875,0.47900390625,-0.9375,-0.9375,-0.25
3.045,-4.0,10.0,-7.0,12.0,2.0,2.0,3.0,18.0,-0.3756103515625,-0.34271240234375,0.69219970703125,0.5120849609375,-0.17041015625,-0.87158203125,0.51318359375,9.0,0.3125,1.0
3.05,5.0,5.0,-8.0,-14.0,-3.0,-6.0,-1.0,-3.0,-0.37493896484375,-0.3414306640625,0.6922607421875,0.513427734375,-0.140625,-0.8369140625,0.52001953125,7.5,4.9375,-2.4375
3.055,-20.0,-19.0,-26.0,-9.0,-12.0,-12.0,-11.0,-1.0,-0.3746337890625,-0.3404541015625,0.6923828125,0.51416015625,-0.17333984375,-0.85205078125,0.501953125,5.25,3.0,-1.1875
3.06,23.0,39.0,6.0,0.0,-8.0,2.0,16.0,36.0,-0.374755859375,-0.3411865234375,0.69244384765625,0.513427734375,-0.193359375,-0.89892578125,0.47265625,-2.5,-4.375,0.5625
3.065,-18.0,-23.0,5.0,8.0,-1.0,1.0,-8.0,-57.0,-0.3748779296875,-0.3421630859375,0.69244384765625,0.51275634765625,-0.18212890625,-0.9169921875,0.46875,-2.8125,-4.5625,0.625
3.07,7.0,-14.0,17.0,2.0,4.0,-4.0,-6.0,-8.0,-0.37396240234375,-0.34161376953125,0.69293212890625,0.5130615234375,-0.1513671875,-0.9169921875,0.50927734375,7.3125,-1.3125,1.375
3.075,25.0,7.0,-11.0,41.0,12.0,2.0,28.0,22.0,-0.37261962890625,-0.3392333984375,0.69342041015625,0.5150146484375,-0.14599609375,-0.85595703125,0.5341796875,15.9375,5.625,-2.5625
3.08,-20.0,-13.0,23.0,-2.0,-7.0,-3.0,-15.0,-24.0,-0.3719482421875,-0.33709716796875,0.69329833984375,0.5169677734375,-0.18505859375,-0.82470703125,0.5087890625,12.5625,6.875,-6.375
3.085,-13.0,-6.0,-7.0,-4.0,-5.0,-1.0,-13.0,-29.0,-0.372802734375,-0.3367919921875,0.69293212890625,0.51715087890625,-0.18017578125,-0.8466796875,0.494140625,-1.875,4.9375,-0.3125
3.09,20.0,-4.0,20.0,14.0,-6.0,2.0,51.0,74.0,-0.37353515625,-0.3367919921875,0.69281005859375,0.5167236328125,-0.1728515625,-0.8828125,0.494140625,-2.375,2.375,3.0625
3.095,-4.0,21.0,9.0,-18.0,-7.0,-3.0,-51.0,-78.0,-0.37396240234375,-0.3363037109375,0.6927490234375,0.51678466796875,-0.18359375,-0.91064453125,0.50927734375,1.8125,3.1875,1.125
3.1,-3.0,-4.0,-15.0,2.0,7.0,-10.0,-45.0,11.0,-0.3721923828125,-0.332275390625,0.69390869140625,0.51910400390625,-0.181640625,-0.826171875,0.50927734375,17.0625,2.5,-0.5625
3.105,-11.0,-1.0,-2.0,-8.0,10.0,7.0,27.0,-1.0,-0.37164306640625,-0.33221435546875,0.694580078125,0.51873779296875,-0.1904296875,-0.8486328125,0.478515625,4.0,-5.0,1.1875
3.11,-14.0,-12.0,21.0,21.0,15.0,4.0,-7.0,-34.0,-0.37115478515625,-0.33221435546875,0.69537353515625,0.51800537109375,-0.17578125,-0.87451171875,0.49462890625,2.75,-5.375,4.375
3.115,18.0,-12.0,-17.0,25.0,19.0,0.0,40.0,56.0
3.12,-5.0,-35.0,-13.0,-17.0,-13.0,-8.0,-36.0,19.0,-0.36895751953125,-0.32977294921875,0.697265625,0.5185546875,-0.197265625,-0.82275390625,0.509765625,16.375,-2.3125,1.0625
3.125,7.0,-9.0,-30.0,20.0,16.0,7.0,3.0,0.0
3.13,15.0,5.0,-31.0,5.0,8.0,0.0,-15.0,30.0,-0.368408203125,-0.32904052734375,0.6981201171875,0.518310546875,-0.18115234375,-0.8662109375,0.52099609375,6.0,-2.1875,3.625
3.135,20.0,25.0,35.0,4.0,0.0,10.0,18.0,10.0,-0.3670654296875,-0.328369140625,0.699951171875,0.5172119140625,-0.17236328125,-0.8974609375,0.52685546875,4.3125,-4.4375,4.125
3.14,50.0,-19.0,-34.0,54.0,32.0,16.0,48.0,51.0,-0.36553955078125,-0.3267822265625,0.700927734375,0.51800537109375,-0.171875,-0.884765625,0.56396484375,13.625,-1.1875,1.0
3.145,-33.0,-9.0,36.0,34.0,-4.0,-4.0,66.0,75.0,-0.3642578125,-0.32470703125,0.70196533203125,0.51873779296875,-0.1845703125,-0.81640625,0.53857421875,14.0625,-0.1875,1.375
3.15,-33.0,-7.0,53.0,-15.0,-35.0,4.0,2.0,11.0,-0.3642578125,-0.3240966796875,0.7025146484375,0.51837158203125,-0.1962890625,-0.8525390625,0.53173828125,3.0,-0.6875,3.3125
3.155,16.0,19.0,17.0,-17.0,28.0,-8.0,16.0,106.0,-0.364013671875,-0.32354736328125,0.7030029296875,0.51824951171875,-0.171875,-0.86083984375,0.54931640625,3.1875,-0.1875,3.3125
3.16,99.0,-10.0,-5.0,48.0,29.0,17.0,71.0,56.0,-0.3634033203125,-0.3226318359375,0.70361328125,0.5184326171875,-0.1796875,-0.85693359375,0.53564453125,7.375,-0.75,1.6875
3.165,-31.0,-60.0,-80.0,-49.0,-8.0,2.0,31.0,-58.0,-0.36285400390625,-0.3218994140625,0.70404052734375,0.5186767578125,-0.17041015625,-0.83154296875,0.54443359375,5.125,0.125,1.25
3.17,19.0,39.0,32.0,-50.0,-26.0,-16.0,-31.0,-8.0,-0.3629150390625,-0.3216552734375,0.70416259765625,0.51861572265625,-0.169921875,-0.845703125,0.53564453125,0.9375,0.6875,1.5625
3.175,-72.0,41.0,70.0,14.0,-3.0,2.0,-77.0,-122.0,-0.36285400390625,-0.3216552734375,0.70416259765625,0.5186767578125,-0.1796875,-0.8671875,0.56396484375,0.9375,0.625,-0.125
3.18,21.0,-16.0,-54.0,34.0,3.0,-9.0,70.0,91.0,-0.3624267578125,-0.32110595703125,0.7042236328125,0.519287109375,-0.18310546875,-0.857421875,0.54052734375,5.6875,0.8125,-1.9375
3.185,-54.0,-48.0,-80.0,-122.0,-37.0,-20.0,-23.0,12.0,-0.3626708984375,-0.32135009765625,0.703857421875,0.5194091796875,-0.18359375,-0.84814453125,0.51806640625,-1.0,0.8125,-1.75
3.19,7.0,-12.0,-23.0,-57.0,-14.0,17.0,-33.0,-65.0,-0.36279296875,-0.3218994140625,0.70306396484375,0.51995849609375,-0.203125,-0.89111328125,0.53369140625,-0.3125,-1.1875,-2.1875
3.195,-53.0,-56.0,-79.0,-53.0,-19.0,-38.0,-100.0,-125.0
3.2,65.0,-13.0,-21.0,-59.0,-35.0,41.0,68.0,81.0,-0.3616943359375,-0.32110595703125,0.70306396484375,0.52130126953125,-0.13720703125,-0.82177734375,0.568359375,6.75,2.0,-3.75
3.205,-71.0,-93.0,-33.0,-124.0,-94.0,-23.0,-112.0,-124.0,-0.3629150390625,-0.32220458984375,0.70135498046875,0.52203369140625,-0.16943359375,-0.86865234375,0.57421875,-6.5625,2.875,-2.6875
3.21,113.0,93.0,120.0,57.0,37.0,-19.0,-34.0,24.0
3.215,24.0,79.0,59.0,-29.0,-24.0,-29.0,-18.0,-28.0,-0.363037109375,-0.32208251953125,0.70123291015625,0.52227783203125,-0.173828125,-0.896484375,0.541015625,2.1875,1.625,-0.1875
3.22,-45.0,-39.0,22.0,-117.0,-110.0,-43.0,65.0,-43.0,-0.36285400390625,-0.3214111328125,0.701416015625,0.52252197265625,-0.1884765625,-0.87939453125,0.53955078125,5.125,1.0625,0.375
3.225,-7.0,-20.0,-60.0,23.0,-28.0,5.0,56.0,56.0,-0.3629150390625,-0.3201904296875,0.70123291015625,0.52349853515625,-0.1669921875,-0.82421875,0.5224609375,6.5625,6.125,-1.4375
3.23,-41.0,-22.0,-30.0,-31.0,-17.0,-10.0,-34.0,-29.0,-0.36328125,-0.3194580078125,0.70135498046875,0.5234375,-0.21484375,-0.85107421875,0.52880859375,3.125,1.6875,0.6875
3.235,-31.0,-12.0,-19.0,-20.0,-12.0,18.0,32.0,-18.0,-0.36346435546875,-0.32012939453125,0.70166015625,0.52252197265625,-0.20068359375,-0.88720703125,0.5166015625,-1.6875,-4.6875,2.75
3.24,1.0,-7.0,3.0,-19.0,-9.0,-8.0,-14.0,-31.0,-0.36322021484375,-0.32012939453125,0.7021484375,0.5220947265625,-0.17919921875,-0.86962890625,0.525390625,2.3125,-3.125,3.0625
3.245,-32.0,-22.0,-7.0,-22.0,-23.0,-9.0,4.0,-25.0,-0.363525390625,-0.32061767578125,0.7020263671875,0.52166748046875,-0.2138671875,-0.83251953125,0.5302734375,-3.625,-2.125,-1.3125
3.25,-1.0,-4.0,-2.0,-14.0,-14.0,1.0,-8.0,-26.0,-0.3636474609375,-0.32196044921875,0.70098876953125,0.522216796875,-0.1513671875,-0.85009765625,0.578125,-9.0625,1.125,-6.3125
3.255,4.0,15.0,23.0,59.0,19.0,8.0,8.0,-18.0,-0.367431640625,-0.3260498046875,0.69677734375,0.52264404296875,-0.1904296875,-0.8154296875,0.56005859375,-16.375,9.25,-7.5
3.26,-7.0,-6.0,42.0,9.0,-3.0,-18.0,-13.0,-28.0,-0.3704833984375,-0.32818603515625,0.6951904296875,0.521240234375,-0.2724609375,-0.8408203125,0.47607421875,-21.5,2.4375,-4.0
3.265,-14.0,-1.0,-17.0,-16.0,-9.0,-2.0,-5.0,6.0,-0.37200927734375,-0.33172607421875,0.69354248046875,0.52008056640625,-0.1650390625,-0.90771484375,0.48291015625,-20.9375,-3.125,-3.9375
3.27,-21.0,-28.0,10.0,2.0,2.0,-2.0,-2.0,5.0,-0.37164306640625,-0.3331298828125,0.6923828125,0.52099609375,-0.11767578125,-0.875,0.525390625,-5.25,0.4375,-7.625
3.275,-10.0,-8.0,14.0,6.0,3.0,6.0,7.0,-12.0,-0.37164306640625,-0.33380126953125,0.69110107421875,0.52227783203125,-0.16259765625,-0.8359375,0.52880859375,-4.625,3.625,-10.25
3.28,-1.0,2.0,-18.0,-3.0,-1.0,-2.0,0.0,-7.0,-0.37359619140625,-0.33624267578125,0.6893310546875,0.521728515625,-0.17041015625,-0.8232421875,0.5166015625,-22.5,3.375,-5.25
3.285,-27.0,-10.0,-16.0,-2.0,0.0,-11.0,-2.0,-9.0,-0.375732421875,-0.3389892578125,0.68817138671875,0.5198974609375,-0.201171875,-0.857421875,0.4736328125,-22.5625,-2.375,-0.0625
3.29,-6.0,3.0,-3.0,-2.0,4.0,0.0,-5.0,-9.0,-0.3773193359375,-0.34197998046875,0.68731689453125,0.51788330078125,-0.17138671875,-0.92138671875,0.48779296875,-20.75,-4.9375,2.0625
3.295,0.0,-22.0,-1.0,-30.0,-6.0,-10.0,-1.0,0.0,-0.3785400390625,-0.34405517578125,0.6861572265625,0.5172119140625,-0.13134765625,-0.943359375,0.50244140625,-14.5,1.125,0.0
3.3,-2.0,-5.0,-14.0,-4.0,-2.0,-2.0,-6.0,3.0,-0.3778076171875,-0.34356689453125,0.6861572265625,0.51806640625,-0.15576171875,-0.89501953125,0.4951171875,6.0625,0.75,-3.125
3.305,6.0,15.0,13.0,-16.0,-3.0,-5.0,-13.0,-8.0,-0.37762451171875,-0.3431396484375,0.68621826171875,0.51849365234375,-0.181640625,-0.84765625,0.48583984375,2.1875,0.625,-2.1875
3.31,-6.0,-29.0,-30.0,5.0,-2.0,0.0,-2.0,-6.0,-0.37994384765625,-0.3438720703125,0.68572998046875,0.51690673828125,-0.2021484375,-0.84521484375,0.49072265625,-12.375,1.125,3.4375
3.315,6.0,0.0,-6.0,-4.0,1.0,1.0,0.0,0.0
3.32,-4.0,7.0,7.0,16.0,5.0,8.0,6.0,2.0,-0.380859375,-0.3458251953125,0.68524169921875,0.51556396484375,-0.185546875,-0.89404296875,0.4833984375,-14.3125,-4.25,0.625
3.325,-4.0,3.0,10.0,17.0,5.0,-1.0,-1.0,-2.0,-0.38201904296875,-0.3482666015625,0.6842041015625,0.514404296875,-0.17626953125,-0.91162109375,0.46337890625,-16.125,-3.25,-2.0625
3.33,-7.0,-8.0,-19.0,-17.0,-9.0,-15.0,-12.0,-5.0,-0.3824462890625,-0.3499755859375,0.68310546875,0.514404296875,-0.15283203125,-0.93505859375,0.4677734375,-8.3125,-0.75,-4.5625
3.335,-1.0,1.0,5.0,-9.0,0.0,-2.0,-1.0,-4.0,-0.382568359375,-0.35125732421875,0.6822509765625,0.51458740234375,-0.15478515625,-0.9375,0.4443359375,-3.6875,-1.125,-4.8125
3.34,-8.0,-26.0,-66.0,-15.0,-7.0,6.0,12.0,7.0,-0.38201904296875,-0.35113525390625,0.68218994140625,0.51513671875,-0.1669921875,-0.90087890625,0.4560546875,4.0625,-0.75,-3.25
3.345,-2.0,-6.0,-8.0,-16.0,-3.0,3.0,3.0,-1.0,-0.38201904296875,-0.35125732421875,0.681884765625,0.51544189453125,-0.1494140625,-0.88818359375,0.46484375,-0.25,1.25,-1.6875
3.35,5.0,3.0,6.0,-14.0,-5.0,-7.0,-8.0,3.0,-0.382080078125,-0.35186767578125,0.68145751953125,0.5155029296875,-0.1611328125,-0.8662109375,0.482421875,-4.75,-0.5,-2.9375
3.355,1.0,3.0,7.0,0.0,-4.0,2.0,1.0,1.0,-0.38275146484375,-0.35321044921875,0.6810302734375,0.5147705078125,-0.169921875,-0.9072265625,0.49853515625,-11.1875,-1.8125,-0.5
3.36,-5.0,-12.0,-17.0,-15.0,-7.0,-4.0,8.0,1.0,-0.38299560546875,-0.35400390625,0.68096923828125,0.5140380859375,-0.16455078125,-0.89013671875,0.46142578125,-5.75,-2.9375,1.0625
3.365,-5.0,-1.0,-1.0,-3.0,6.0,-6.0,-4.0,-4.0,-0.38214111328125,-0.35321044921875,0.681884765625,0.5140380859375,-0.17626953125,-0.89111328125,0.47509765625,7.0625,-3.4375,1.5625
3.37,-1.0,9.0,30.0,33.0,-2.0,-3.0,-4.0,-5.0,-0.38232421875,-0.3531494140625,0.681884765625,0.51397705078125,-0.1630859375,-0.8857421875,0.47412109375,-1.125,0.6875,0.625
3.375,-0.3822021484375,-0.3531494140625,0.68170166015625,0.5142822265625,-0.1669921875,-0.88427734375,0.47509765625,-0.3125,0.4375,-2.375
3.38,9.0,10.0,9.0,6.0,-2.0,1.0,-4.0,1.0,-0.381591796875,-0.35284423828125,0.6820068359375,0.51458740234375,-0.158203125,-0.8876953125,0.48291015625,3.5625,-1.3125,-0.75
3.385,0.0,9.0,-3.0,-6.0,3.0,-4.0,-3.0,-6.0,-0.38116455078125,-0.35284423828125,0.68255615234375,0.51409912109375,-0.16796875,-0.86083984375,0.46484375,3.125,-3.3125,-0.1875
3.39,-12.0,9.0,10.0,11.0,-3.0,-13.0,-18.0,-2.0
3.395,-5.0,8.0,4.0,-5.0,-4.0,-8.0,-3.0,-5.0,-0.38067626953125,-0.3526611328125,0.6827392578125,0.51434326171875,-0.1552734375,-0.8564453125,0.47705078125,1.375,-1.0625,-1.125
3.4,4.0,-6.0,-1.0,-7.0,1.0,4.0,6.0,1.0,-0.38134765625,-0.3541259765625,0.68170166015625,0.51422119140625,-0.1640625,-0.88818359375,0.45947265625,-9.375,-0.4375,-2.875
3.405,1.0,5.0,40.0,18.0,1.0,-3.0,-3.0,-3.0,-0.3824462890625,-0.355712890625,0.68115234375,0.5130615234375,-0.162109375,-0.9130859375,0.4384765625,-10.8125,-2.0625,1.5
3.41,-4.0,1.0,4.0,-7.0,-8.0,-12.0,-5.0,4.0,-0.3829345703125,-0.35687255859375,0.68084716796875,0.51220703125,-0.150390625,-0.90673828125,0.416015625,-5.5625,-2.875,1.25
3.415,-2.0,8.0,-1.0,-1.0,2.0,-3.0,-5.0,-4.0,-0.38336181640625,-0.3582763671875,0.68017578125,0.5118408203125,-0.13427734375,-0.91455078125,0.4306640625,-6.75,-1.125,-1.0
3.42,-2.0,14.0,31.0,25.0,-1.0,-4.0,-3.0,-4.0,-0.3837890625,-0.359130859375,0.67950439453125,0.5118408203125,-0.13330078125,-0.91650390625,0.44580078125,-4.75,1.25,-1.5
3.425,-9.0,-8.0,17.0,-4.0,-6.0,-14.0,-12.0,-5.0,-0.3853759765625,-0.3599853515625,0.678466796875,0.51141357421875,-0.15966796875,-0.8955078125,0.43505859375,-4.375,2.25,1.125
3.43,2.0,-6.0,-15.0,6.0,-2.0,-1.0,1.0,3.0,-0.38616943359375,-0.36041259765625,0.67828369140625,0.51080322265625,-0.158203125,-0.89697265625,0.43798828125,-5.0625,0.625,2.5
3.435,-3.0,-7.0,-15.0,-9.0,-2.0,0.0,2.0,-2.0,-0.386962890625,-0.361083984375,0.67779541015625,0.51031494140625,-0.1396484375,-0.908203125,0.45751953125,-7.25,1.9375,1.9375
3.44,-2.0,-9.0,-3.0,-13.0,-11.0,-3.0,1.0,-1.0,-0.38739013671875,-0.361328125,0.677490234375,0.51025390625,-0.15185546875,-0.90966796875,0.47705078125,-4.75,2.125,0.0625
3.445,-3.0,-1.0,4.0,7.0,6.0,-3.0,-5.0,-3.0,-0.38824462890625,-0.3616943359375,0.677001953125,0.510009765625,-0.15185546875,-0.92724609375,0.46142578125,-5.875,2.875,1.3125
3.45,-1.0,-8.0,-32.0,1.0,-2.0,-8.0,-10.0,-1.0,-0.38787841796875,-0.362060546875,0.67718505859375,0.50970458984375,-0.15087890625,-0.91455078125,0.4609375,1.5625,-2.5625,0.0
3.455,3.0,2.0,4.0,-4.0,-3.0,-3.0,-2.0,0.0
3.46,-1.0,-1.0,-8.0,-9.0,3.0,6.0,4.0,-1.0,-0.386962890625,-0.36175537109375,0.677490234375,0.51025390625,-0.1337890625,-0.88818359375,0.46923828125,3.9375,-1.375,-1.0
3.465,0.0,19.0,-4.0,-7.0,0.0,1.0,1.0,-1.0,-0.385009765625,-0.3614501953125,0.6781005859375,0.51116943359375,-0.16162109375,-0.90087890625,0.47119140625,2.8125,-3.4375,-2.1875
3.47,-1.0,0.0,-1.0,3.0,-2.0,-1.0,1.0,-1.0
3.475,-1.0,7.0,15.0,10.0,2.0,9.0,12.0,1.0,-0.3836669921875,-0.36163330078125,0.6787109375,0.51123046875,-0.1494140625,-0.91650390625,0.46630859375,4.125,-6.6875,-1.25
3.48,-12.0,-20.0,3.0,-3.0,-4.0,-7.0,-5.0,3.0,-0.3819580078125,-0.3614501953125,0.67962646484375,0.51141357421875,-0.14501953125,-0.90576171875,0.4697265625,7.3125,-7.3125,-0.8125
3.485,1.0,4.0,14.0,6.0,2.0,2.0,0.0,-3.0,-0.3787841796875,-0.36077880859375,0.68115234375,0.51220703125,-0.14599609375,-0.923828125,0.4931640625,6.875,-5.0625,-2.0625
3.49,2.0,1.0,1.0,4.0,0.0,1.0,2.0,1.0
3.495,-5.0,-3.0,-1.0,6.0,-2.0,-3.0,-5.0,-1.0,-0.37762451171875,-0.36102294921875,0.68145751953125,0.5125732421875,-0.1435546875,-0.9287109375,0.47314453125,3.9375,-4.875,-3.0
3.5,4.0,10.0,0.0,-4.0,-3.0,-4.0,-2.0,-3.0,-0.3759765625,-0.360595703125,0.6822509765625,0.51300048828125,-0.1572265625,-0.89501953125,0.453125,9.9375,-6.5,-2.5
3.505,-1.0,8.0,-5.0,-3.0,-1.0,-2.0,-1.0,-1.0,-0.3741455078125,-0.35968017578125,0.6834716796875,0.51324462890625,-0.1552734375,-0.880859375,0.47314453125,11.375,-6.875,0.0
3.51,18.0,-3.0,-5.0,0.0,0.0,0.0,-2.0,2.0,-0.37310791015625,-0.35931396484375,0.68426513671875,0.51324462890625,-0.150390625,-0.861328125,0.4677734375,5.4375,-5.0,0.375
3.515,-6.0,-6.0,-7.0,-8.0,-2.0,-4.0,-1.0,0.0,-0.37261962890625,-0.3594970703125,0.68463134765625,0.51300048828125,-0.15771484375,-0.8935546875,0.458984375,1.5625,-4.3125,-0.125
3.52,-4.0,-9.0,-10.0,-1.0,3.0,-2.0,-2.0,-3.0,-0.3717041015625,-0.3594970703125,0.68524169921875,0.5128173828125,-0.13427734375,-0.9111328125,0.46044921875,3.375,-1.8125,0.5
3.525,-2.0,3.0,-20.0,-6.0,-5.0,-4.0,0.0,-2.0,-0.37139892578125,-0.3597412109375,0.68536376953125,0.51275634765625,-0.12646484375,-0.90283203125,0.453125,2.0,-1.875,0.4375
3.53,0.0,-4.0,0.0,7.0,0.0,-3.0,-4.0,-3.0
3.535,-2.0,-17.0,-1.0,8.0,4.0,1.0,-1.0,-1.0,-0.37103271484375,-0.3597412109375,0.6854248046875,0.51287841796875,-0.123046875,-0.87890625,0.4501953125,2.375,-0.8125,0.1875
3.54,9.0,-7.0,-3.0,1.0,3.0,1.0,2.0,5.0,-0.37152099609375,-0.35992431640625,0.68524169921875,0.51275634765625,-0.13720703125,-0.8779296875,0.44873046875,-1.6875,1.3125,0.5625
3.545,-21.0,7.0,5.0,5.0,-3.0,0.0,-1.0,-4.0,-0.3724365234375,-0.3603515625,0.68475341796875,0.51239013671875,-0.14306640625,-0.8857421875,0.462890625,-5.875,2.5625,0.9375
3.55,-1.0,-3.0,7.0,-7.0,-4.0,-2.0,0.0,-3.0,-0.373291015625,-0.360107421875,0.68438720703125,0.512451171875,-0.15380859375,-0.90234375,0.47216796875,-0.5,2.4375,0.0625
3.555,-11.0,-4.0,-5.0,-16.0,-8.0,-3.0,-8.0,-13.0,-0.37322998046875,-0.35931396484375,0.6846923828125,0.51263427734375,-0.16943359375,-0.8837890625,0.48681640625,3.1875,1.0625,0.125
3.56,-10.0,-11.0,-18.0,-4.0,2.0,5.0,5.0,1.0,-0.37353515625,-0.358642578125,0.684814453125,0.51263427734375,-0.1630859375,-0.88720703125,0.484375,1.0625,2.4375,1.25
3.565,-8.0,10.0,16.0,7.0,4.0,-8.0,-3.0,1.0,-0.37396240234375,-0.35888671875,0.68408203125,0.51324462890625,-0.13232421875,-0.91064453125,0.48828125,-1.1875,1.5625,-3.4375
3.57,5.0,14.0,9.0,11.0,-5.0,-3.0,0.0,2.0
3.575,15.0,3.0,-4.0,1.0,-6.0,-1.0,6.0,10.0,-0.3739013671875,-0.35888671875,0.68359375,0.51385498046875,-0.14013671875,-0.91650390625,0.4775390625,0.75,2.1875,-3.25
3.58,-6.0,-5.0,-21.0,-10.0,-1.0,-2.0,-10.0,-20.0,-0.373291015625,-0.35772705078125,0.6842041015625,0.51434326171875,-0.1826171875,-0.91064453125,0.4736328125,9.25,-0.375,-0.9375
3.585,1.0,-17.0,-15.0,12.0,6.0,-2.0,2.0,17.0,-0.37164306640625,-0.3551025390625,0.685302734375,0.515869140625,-0.1396484375,-0.85400390625,0.4775390625,7.875,1.375,-2.9375
3.59,9.0,10.0,12.0,2.0,1.0,0.0,4.0,4.0
3.595,-13.0,5.0,3.0,-22.0,-9.0,-10.0,-7.0,-22.0,-0.37176513671875,-0.3551025390625,0.68499755859375,0.51617431640625,-0.13818359375,-0.875,0.4716796875,-0.1875,2.125,-1.625
3.6,15.0,-15.0,-27.0,-3.0,-3.0,-2.0,-7.0,1.0,-0.37225341796875,-0.3543701171875,0.684814453125,0.51654052734375,-0.1630859375,-0.919921875,0.4794921875,6.0,-0.9375,0.1875
3.605,-7.0,-4.0,14.0,-4.0,-5.0,-3.0,-2.0,2.0,-0.37152099609375,-0.354248046875,0.68505859375,0.516845703125,-0.1396484375,-0.93505859375,0.4658203125,6.3125,-2.1875,-0.75
3.61,3.0,-1.0,12.0,9.0,1.0,-1.0,7.0,12.0,-0.370849609375,-0.353271484375,0.685546875,0.517333984375,-0.13818359375,-0.90283203125,0.47119140625,8.9375,0.0625,1.0
3.615,-4.0,-4.0,-3.0,0.0,-2.0,-7.0,-40.0,-77.0,-0.3697509765625,-0.3515625,0.68646240234375,0.51812744140625,-0.1337890625,-0.87744140625,0.498046875,12.5625,1.0625,1.5
3.62,-10.0,-8.0,0.0,7.0,2.0,-1.0,-4.0,6.0,-0.36895751953125,-0.34967041015625,0.68707275390625,0.5191650390625,-0.1435546875,-0.85400390625,0.53076171875,10.0,3.8125,0.125
3.625,-10.0,8.0,10.0,-3.0,0.0,5.0,-8.0,-38.0,-0.36944580078125,-0.34820556640625,0.68731689453125,0.5194091796875,-0.1611328125,-0.86083984375,0.52392578125,2.9375,6.125,2.875
3.63,-16.0,-4.0,-10.0,-12.0,2.0,-5.0,-24.0,-32.0,-0.37017822265625,-0.34820556640625,0.6875,0.5186767578125,-0.150390625,-0.90576171875,0.4921875,-2.5,1.0625,5.125
3.635,3.0,-12.0,-8.0,5.0,3.0,-2.0,-12.0,-32.0,-0.36993408203125,-0.34771728515625,0.688232421875,0.51812744140625,-0.14208984375,-0.93603515625,0.50048828125,4.4375,-1.875,6.0625
3.64,0.0,-8.0,6.0,-5.0,1.0,8.0,21.0,-5.0,-0.3677978515625,-0.343505859375,0.69024658203125,0.5198974609375,-0.14013671875,-0.8779296875,0.51318359375,19.875,2.5,1.6875
3.645,-8.0,-7.0,6.0,20.0,6.0,0.0,4.0,-26.0
3.65,10.0,20.0,-5.0,-1.0,-6.0,-6.0,15.0,49.0,-0.36663818359375,-0.34033203125,0.69146728515625,0.5211181640625,-0.1552734375,-0.8515625,0.51123046875,20.25,4.5625,3.125
3.655,1.0,-16.0,-85.0,-13.0,-4.0,-3.0,-5.0,13.0,-0.36572265625,-0.3350830078125,0.693603515625,0.52239990234375,-0.14697265625,-0.8359375,0.54443359375,11.0,4.8125,4.875
3.66,21.0,11.0,-24.0,21.0,8.0,3.0,-5.0,-1.0
3.665,26.0,13.0,32.0,-25.0,-32.0,-7.0,-11.0,-38.0,-0.3653564453125,-0.3333740234375,0.69476318359375,0.52215576171875,-0.1806640625,-0.8359375,0.4990234375,10.125,-0.125,6.0625
3.67,-1.0,-22.0,-35.0,-3.0,-10.0,-11.0,-47.0,37.0,-0.3648681640625,-0.3316650390625,0.6968994140625,0.520751953125,-0.1640625,-0.859375,0.48779296875,8.625,-4.8125,7.125
3.675,34.0,21.0,-35.0,-61.0,-3.0,15.0,67.0,113.0
3.68,-9.0,-11.0,-11.0,-5.0,-16.0,-14.0,-51.0,18.0,-0.36456298828125,-0.3310546875,0.69769287109375,0.520263671875,-0.17333984375,-0.9091796875,0.50341796875,6.6875,-2.4375,5.3125
3.685,-55.0,-11.0,-10.0,-38.0,0.0,10.0,-5.0,-77.0,-0.363037109375,-0.3287353515625,0.698974609375,0.52105712890625,-0.13525390625,-0.8720703125,0.5595703125,16.75,1.25,4.625
3.69,41.0,31.0,-33.0,-36.0,-16.0,-10.0,-23.0,-2.0,-0.36224365234375,-0.32659912109375,0.7003173828125,0.521240234375,-0.16943359375,-0.8154296875,0.52392578125,13.0,0.5,5.5625
3.695,-16.0,29.0,16.0,5.0,-2.0,-2.0,-33.0,-67.0,-0.3631591796875,-0.32574462890625,0.70111083984375,0.52001953125,-0.20556640625,-0.8359375,0.50537109375,0.75,0.75,8.8125
3.7,-51.0,0.0,9.0,-51.0,-26.0,-14.0,-82.0,-128.0
3.705,-3.0,-16.0,-8.0,-49.0,-2.0,5.0,42.0,13.0,-0.36407470703125,-0.325927734375,0.701416015625,0.51885986328125,-0.16796875,-0.93212890625,0.544921875,-3.0,0.9375,8.25
3.71,-45.0,-27.0,4.0,16.0,11.0,0.0,-3.0,-34.0,-0.36322021484375,-0.3226318359375,0.7027587890625,0.51971435546875,-0.1875,-0.86279296875,0.5517578125,19.5625,5.0,5.625
3.715,9.0,-38.0,17.0,41.0,8.0,-3.0,28.0,-3.0,-0.36248779296875,-0.31939697265625,0.703857421875,0.52069091796875,-0.1953125,-0.79248046875,0.55078125,17.125,5.625,3.125
3.72,56.0,45.0,8.0,63.0,17.0,-13.0,-41.0,127.0,-0.3626708984375,-0.3179931640625,0.704345703125,0.52081298828125,-0.18701171875,-0.79736328125,0.54833984375,4.4375,4.0,3.5
3.725,-15.0,-13.0,-57.0,9.0,-7.0,-4.0,-27.0,-45.0,-0.363525390625,-0.31756591796875,0.70452880859375,0.5201416015625,-0.2021484375,-0.83203125,0.50341796875,-0.125,1.875,4.4375
3.73,-11.0,-15.0,21.0,45.0,42.0,6.0,0.0,55.0,-0.36358642578125,-0.3172607421875,0.70452880859375,0.52032470703125,-0.16015625,-0.90380859375,0.53662109375,4.125,2.125,2.4375
3.735,-43.0,-48.0,-4.0,-71.0,-24.0,-2.0,-9.0,-55.0,-0.36285400390625,-0.31591796875,0.705078125,0.52093505859375,-0.169921875,-0.85693359375,0.55322265625,10.3125,1.875,1.5625
3.74,-20.0,-2.0,43.0,-1.0,15.0,2.0,10.0,-64.0,-0.3626708984375,-0.31512451171875,0.705322265625,0.52117919921875,-0.18701171875,-0.7900390625,0.541015625,3.375,1.4375,0.375
3.745,-51.0,-51.0,-73.0,-73.0,-46.0,-4.0,6.0,-67.0,-0.3638916015625,-0.31646728515625,0.7049560546875,0.52001953125,-0.2119140625,-0.85400390625,0.5283203125,-10.75,-1.5,1.75
3.75,10.0,4.0,-1.0,41.0,0.0,-4.0,-41.0,11.0,-0.36260986328125,-0.3165283203125,0.70477294921875,0.5211181640625,-0.1513671875,-0.85107421875,0.56103515625,6.5,1.6875,-4.8125
3.755,74.0,27.0,-15.0,-75.0,-24.0,5.0,97.0,95.0
3.76,-36.0,-54.0,-6.0,-82.0,-32.0,-2.0,-40.0,-97.0,-0.36199951171875,-0.314697265625,0.705322265625,0.52191162109375,-0.20068359375,-0.7861328125,0.55322265625,9.8125,2.625,-0.5
3.765,-46.0,-56.0,38.0,70.0,28.0,-4.0,-13.0,-17.0,-0.36273193359375,-0.31549072265625,0.7054443359375,0.520751953125,-0.18701171875,-0.89208984375,0.55322265625,3.25,-2.25,2.1875
3.77,-81.0,-21.0,-2.0,-37.0,-5.0,-3.0,-66.0,-106.0
3.775,16.0,-13.0,-13.0,-64.0,-10.0,11.0,41.0,-55.0,-0.36260986328125,-0.31494140625,0.705322265625,0.5213623046875,-0.1640625,-0.81640625,0.56494140625,2.0,3.5625,-1.125
3.78,-63.0,-16.0,-72.0,-47.0,-28.0,-8.0,-127.0,-128.0,-0.36328125,-0.314208984375,0.7052001953125,0.52154541015625,-0.21630859375,-0.79248046875,0.53125,0.125,4.1875,-0.5625
3.785,-52.0,8.0,2.0,-28.0,-15.0,-23.0,-124.0,-124.0,-0.364990234375,-0.31585693359375,0.7047119140625,0.51995849609375,-0.234375,-0.8857421875,0.5107421875,-12.1875,-1.9375,2.4375
3.79,31.0,20.0,12.0,26.0,13.0,23.0,-7.0,10.0,-0.3648681640625,-0.31591796875,0.7047119140625,0.52001953125,-0.16015625,-0.875,0.578125,0.4375,-0.25,-0.25
3.795,22.0,7.0,2.0,14.0,-4.0,-11.0,30.0,43.0,-0.36541748046875,-0.3160400390625,0.70416259765625,0.52032470703125,-0.1796875,-0.822265625,0.56591796875,-4.75,3.9375,-1.75
3.8,23.0,34.0,18.0,4.0,-7.0,-3.0,47.0,61.0,-0.36712646484375,-0.3173828125,0.7032470703125,0.51953125,-0.1875,-0.83837890625,0.51123046875,-12.25,3.0625,0.5625
3.805,5.0,2.0,0.0,27.0,7.0,-17.0,10.0,-49.0,-0.3690185546875,-0.3192138671875,0.70257568359375,0.5179443359375,-0.24609375,-0.89501953125,0.5146484375,-14.5625,-1.375,1.6875
3.81,-95.0,-21.0,-57.0,-47.0,-31.0,-3.0,-88.0,-117.0,-0.3680419921875,-0.31854248046875,0.702392578125,0.519287109375,-0.14208984375,-0.81640625,0.55078125,5.9375,2.6875,-4.0
3.815,1.0,5.0,22.0,26.0,2.0,-9.0,6.0,19.0,-0.36981201171875,-0.32061767578125,0.700927734375,0.51873779296875,-0.17236328125,-0.78662109375,0.525390625,-19.4375,3.625,-3.0
3.82,2.0,9.0,3.0,-10.0,-4.0,10.0,7.0,7.0,-0.37213134765625,-0.32452392578125,0.69891357421875,0.517333984375,-0.1787109375,-0.95458984375,0.54296875,-27.0,-0.125,-2.625
3.825,-12.0,-10.0,-24.0,2.0,2.0,30.0,26.0,13.0,-0.3739013671875,-0.32708740234375,0.6973876953125,0.5166015625,-0.17919921875,-0.89111328125,0.51513671875,-18.625,1.6875,-2.875
3.83,-38.0,6.0,12.0,8.0,1.0,-12.0,-16.0,-62.0,-0.374755859375,-0.32818603515625,0.69573974609375,0.5174560546875,-0.2001953125,-0.8349609375,0.5390625,-10.75,5.0625,-10.3125
3.835,-6.0,-1.0,-23.0,3.0,5.0,7.0,-2.0,-13.0,-0.3775634765625,-0.3314208984375,0.69110107421875,0.51959228515625,-0.17724609375,-0.7783203125,0.5166015625,-21.9375,9.4375,-11.5
3.84,21.0,11.0,54.0,29.0,2.0,18.0,8.0,1.0,-0.3797607421875,-0.33416748046875,0.68927001953125,0.51861572265625,-0.205078125,-0.86376953125,0.5078125,-23.75,2.125,-4.875
