time,channel_1,channel_2,channel_3,channel_4,channel_5,channel_6,channel_7,channel_8,orientation_x,orientation_y,orientation_z,orientation_w,acceleration_x,acceleration_y,acceleration_z,gyroscope_x,gyroscope_y,gyroscope_z
0.005,0.0,-2.0,2.0,-1.0,-3.0,-2.0,-2.0,-1.0,-0.34075927734375,-0.432861328125,0.75762939453125,0.35003662109375,-0.2158203125,-0.9228515625,0.39599609375,-1.5,-0.5625,0.5625
0.01,0.0,-3.0,-9.0,-3.0,-1.0,1.0,-1.0,-4.0
0.015,0.0,2.0,1.0,-5.0,-1.0,0.0,0.0,-1.0,-0.34075927734375,-0.432861328125,0.757568359375,0.35003662109375,-0.220703125,-0.92529296875,0.39697265625,0.5,-0.6875,-0.0625
0.02,-2.0,1.0,2.0,4.0,-3.0,-2.0,-1.0,-1.0,-0.340576171875,-0.4326171875,0.7578125,0.35003662109375,-0.228515625,-0.9208984375,0.40185546875,2.25,-1.1875,-0.25
0.025,-3.0,-1.0,4.0,0.0,-2.0,-2.0,-2.0,-2.0,-0.34033203125,-0.43243408203125,0.758056640625,0.35003662109375,-0.22802734375,-0.90966796875,0.3935546875,2.4375,-1.5,-0.4375
0.03,3.0,-6.0,-5.0,-9.0,-1.0,0.0,0.0,0.0,-0.34014892578125,-0.43231201171875,0.75823974609375,0.3499755859375,-0.21923828125,-0.9013671875,0.390625,1.5625,-1.4375,0.0
0.035,-2.0,-10.0,-9.0,-5.0,-6.0,-4.0,-1.0,0.0,-0.34051513671875,-0.43304443359375,0.758056640625,0.34906005859375,-0.2158203125,-0.92236328125,0.3955078125,-3.1875,-0.8125,1.75
0.04,16.0,10.0,3.0,-2.0,-11.0,-6.0,0.0,1.0
0.045,7.0,-2.0,-5.0,-3.0,2.0,1.0,-2.0,3.0,-0.3406982421875,-0.43310546875,0.758056640625,0.34893798828125,-0.2158203125,-0.92333984375,0.408203125,-0.9375,0.5625,1.0625
0.05,-1.0,0.0,-11.0,-12.0,-2.0,0.0,0.0,3.0,-0.3406982421875,-0.432861328125,0.758056640625,0.34906005859375,-0.21630859375,-0.92626953125,0.4150390625,0.8125,1.125,0.375
0.055,-12.0,0.0,1.0,-2.0,-6.0,-1.0,-1.0,-2.0,-0.34051513671875,-0.4320068359375,0.75836181640625,0.34967041015625,-0.2158203125,-0.92529296875,0.41650390625,3.0,0.75,0.0
0.06,-6.0,-19.0,-3.0,18.0,6.0,1.0,0.0,-15.0,-0.34002685546875,-0.43115234375,0.75897216796875,0.3499755859375,-0.2177734375,-0.91552734375,0.4287109375,5.25,-0.375,0.25
0.065,-25.0,4.0,-3.0,-9.0,-4.0,-2.0,0.0,-10.0,-0.33978271484375,-0.43011474609375,0.75933837890625,0.35052490234375,-0.21826171875,-0.927734375,0.4169921875,6.8125,1.9375,0.0625
0.07,7.0,38.0,43.0,35.0,9.0,1.0,1.0,4.0,-0.33892822265625,-0.4283447265625,0.76019287109375,0.35174560546875,-0.2060546875,-0.9189453125,0.4267578125,13.3125,1.625,-1.0625
0.075,-3.0,24.0,-13.0,3.0,2.0,0.0,-4.0,-7.0,-0.33770751953125,-0.421142578125,0.76226806640625,0.35711669921875,-0.236328125,-0.93994140625,0.4404296875,14.1875,8.75,-0.25
0.08,-11.0,-4.0,-18.0,4.0,-1.0,-1.0,-2.0,-1.0
0.085,-5.0,6.0,-8.0,-44.0,-13.0,-5.0,-6.0,-2.0,-0.33758544921875,-0.41876220703125,0.76300048828125,0.3583984375,-0.24755859375,-0.8935546875,0.3701171875,18.25,4.25,-1.4375
0.09,-2.0,-17.0,30.0,3.0,-4.0,-3.0,-5.0,-9.0,-0.3360595703125,-0.413818359375,0.765380859375,0.3604736328125,-0.19580078125,-0.88671875,0.43798828125,13.5625,2.875,1.6875
0.095,2.0,-10.0,37.0,-52.0,-8.0,3.0,5.0,-5.0,-0.336181640625,-0.4105224609375,0.7659912109375,0.3629150390625,-0.22021484375,-0.85595703125,0.44921875,4.0625,6.8125,-1.6875
0.1,3.0,-37.0,-15.0,22.0,-2.0,1.0,-1.0,5.0
0.105,14.0,27.0,23.0,-36.0,-8.0,0.0,4.0,11.0,-0.33697509765625,-0.41058349609375,0.76568603515625,0.36273193359375,-0.25146484375,-0.86962890625,0.42578125,-2.5625,2.0,-0.25
0.11,0.0,-6.0,17.0,-2.0,1.0,-1.0,-12.0,-5.0,-0.33721923828125,-0.4114990234375,0.7655029296875,0.36181640625,-0.23388671875,-0.96435546875,0.41357421875,-2.9375,-3.25,2.875
0.115,-23.0,-17.0,-103.0,-16.0,-6.0,0.0,3.0,-6.0,-0.3365478515625,-0.4107666015625,0.7662353515625,0.36175537109375,-0.19091796875,-0.9345703125,0.4404296875,7.9375,-2.0625,4.375
0.12,-4.0,-25.0,44.0,102.0,62.0,21.0,16.0,-16.0,-0.335693359375,-0.40869140625,0.76708984375,0.36297607421875,-0.19580078125,-0.8759765625,0.466796875,13.6875,2.8125,-0.4375
0.125,-10.0,16.0,-43.0,-90.0,-20.0,-9.0,0.0,-4.0,-0.33538818359375,-0.406982421875,0.76751708984375,0.36431884765625,-0.21240234375,-0.81640625,0.47119140625,8.25,5.1875,-2.9375
0.13,7.0,-6.0,102.0,40.0,-7.0,-13.0,-8.0,-14.0,-0.33563232421875,-0.4073486328125,0.7672119140625,0.3643798828125,-0.22607421875,-0.873046875,0.40625,-0.3125,0.1875,-1.375
0.135,50.0,26.0,-19.0,-12.0,5.0,0.0,14.0,7.0,-0.3360595703125,-0.40875244140625,0.766357421875,0.3641357421875,-0.1923828125,-0.908203125,0.42236328125,-7.4375,0.625,-0.3125
0.14,-31.0,-29.0,23.0,-23.0,-40.0,-12.0,-5.0,5.0,-0.3360595703125,-0.40966796875,0.7657470703125,0.3643798828125,-0.19384765625,-0.93701171875,0.46044921875,-4.5,0.6875,-1.8125
0.145,18.0,35.0,-122.0,-92.0,-16.0,-1.0,-4.0,8.0,-0.3358154296875,-0.408203125,0.7659912109375,0.3658447265625,-0.18701171875,-0.89990234375,0.48291015625,8.5,6.5625,-1.5625
0.15,-30.0,-14.0,42.0,48.0,11.0,-2.0,-17.0,-21.0,-0.33551025390625,-0.40625,0.7664794921875,0.36724853515625,-0.208984375,-0.80908203125,0.44140625,11.375,5.1875,-2.5
0.155,-50.0,-67.0,-90.0,-52.0,-24.0,0.0,4.0,11.0,-0.3359375,-0.40716552734375,0.76617431640625,0.36651611328125,-0.2578125,-0.84619140625,0.41259765625,-5.9375,-2.9375,-1.125
0.16,13.0,-41.0,22.0,-37.0,1.0,11.0,26.0,51.0,-0.3358154296875,-0.40887451171875,0.76617431640625,0.36468505859375,-0.18701171875,-0.9091796875,0.4306640625,-9.0,-7.625,6.5625
0.165,23.0,22.0,-81.0,-35.0,-27.0,7.0,-2.0,16.0,-0.33477783203125,-0.40826416015625,0.76666259765625,0.3653564453125,-0.15771484375,-0.9267578125,0.5078125,5.0,0.1875,1.3125
0.17,6.0,17.0,3.0,-56.0,6.0,3.0,-20.0,-1.0,-0.3349609375,-0.40631103515625,0.76666259765625,0.3673095703125,-0.21484375,-0.86767578125,0.484375,9.5,9.9375,-4.5625
0.175,30.0,32.0,51.0,42.0,16.0,-2.0,3.0,-1.0,-0.33502197265625,-0.4093017578125,0.766357421875,0.3646240234375,-0.2080078125,-0.8876953125,0.39404296875,-7.0625,-13.375,3.6875
0.18,-36.0,22.0,17.0,5.0,2.0,-7.0,-9.0,-24.0
0.185,9.0,11.0,110.0,26.0,-11.0,-10.0,8.0,4.0,-0.3331298828125,-0.40997314453125,0.76678466796875,0.3646240234375,-0.125,-0.91162109375,0.4609375,2.3125,-7.5,1.125
0.19,-2.0,5.0,19.0,22.0,30.0,7.0,1.0,6.0,-0.3321533203125,-0.40704345703125,0.7669677734375,0.368408203125,-0.25146484375,-0.83251953125,0.46337890625,8.8125,4.25,-4.375
0.195,16.0,-31.0,-66.0,-16.0,6.0,-2.0,-8.0,1.0
0.2,0.0,4.0,7.0,35.0,5.0,2.0,14.0,10.0,-0.33282470703125,-0.4080810546875,0.76708984375,0.366455078125,-0.25830078125,-0.85986328125,0.4267578125,-8.375,-5.9375,5.625
0.205,-4.0,-18.0,26.0,5.0,2.0,1.0,-18.0,-9.0,-0.3338623046875,-0.41156005859375,0.76605224609375,0.3636474609375,-0.20751953125,-0.96826171875,0.40869140625,-20.625,-7.625,7.625
0.21,2.0,27.0,-48.0,21.0,27.0,3.0,4.0,-2.0,-0.3338623046875,-0.4111328125,0.76605224609375,0.36419677734375,-0.19384765625,-1.01025390625,0.51025390625,2.75,3.8125,1.625
0.215,10.0,5.0,66.0,52.0,2.0,-7.0,-5.0,3.0,-0.33319091796875,-0.40789794921875,0.76715087890625,0.36602783203125,-0.234375,-0.90380859375,0.48486328125,20.125,5.9375,-2.1875
0.22,14.0,-6.0,-19.0,10.0,24.0,12.0,9.0,-3.0,-0.333984375,-0.4063720703125,0.7679443359375,0.36553955078125,-0.279296875,-0.79443359375,0.4296875,4.625,1.8125,3.75
0.225,-14.0,25.0,-40.0,-107.0,-31.0,-9.0,-52.0,-23.0,-0.33563232421875,-0.40936279296875,0.7669677734375,0.3626708984375,-0.2626953125,-0.9072265625,0.40380859375,-21.1875,-5.75,6.4375
0.23,-10.0,36.0,103.0,62.0,6.0,-3.0,13.0,-24.0,-0.335693359375,-0.40985107421875,0.76702880859375,0.3619384765625,-0.1962890625,-0.953125,0.48828125,-3.8125,-1.375,5.125
0.235,-13.0,6.0,-20.0,23.0,-23.0,-8.0,8.0,-7.0,-0.335205078125,-0.407958984375,0.76727294921875,0.36395263671875,-0.2041015625,-0.921875,0.49853515625,11.625,7.375,-4.4375
0.24,-4.0,-25.0,41.0,44.0,24.0,5.0,-13.0,-8.0,-0.33575439453125,-0.406005859375,0.76763916015625,0.3648681640625,-0.25927734375,-0.8359375,0.447265625,8.8125,6.625,-1.1875
0.245,26.0,1.0,25.0,9.0,13.0,3.0,44.0,36.0,-0.3369140625,-0.4075927734375,0.7672119140625,0.36297607421875,-0.24462890625,-0.8251953125,0.38525390625,-12.3125,-3.4375,5.0625
0.25,-27.0,-4.0,19.0,21.0,19.0,5.0,-11.0,-12.0,-0.33856201171875,-0.41107177734375,0.764892578125,0.36236572265625,-0.2060546875,-0.994140625,0.4716796875,-5.6875,4.1875,-6.125
0.255,-18.0,-45.0,-44.0,-54.0,-28.0,-7.0,-12.0,-15.0
0.26,3.0,-7.0,28.0,19.0,-1.0,-3.0,7.0,6.0,-0.33758544921875,-0.4080810546875,0.7657470703125,0.36480712890625,-0.2001953125,-0.884765625,0.47021484375,20.1875,7.1875,-3.75
0.265,-12.0,-51.0,-6.0,-74.0,-45.0,-15.0,-16.0,-36.0,-0.33795166015625,-0.40692138671875,0.76611328125,0.364990234375,-0.24072265625,-0.791015625,0.42626953125,3.9375,2.9375,0.4375
0.27,14.0,17.0,7.0,-37.0,-24.0,9.0,15.0,-44.0,-0.3394775390625,-0.40924072265625,0.7667236328125,0.3597412109375,-0.2421875,-0.97998046875,0.40625,0.3125,-10.625,14.875
0.275,5.0,-5.0,-5.0,2.0,-1.0,15.0,-27.0,-5.0,-0.33740234375,-0.40399169921875,0.7696533203125,0.36126708984375,-0.193359375,-0.830078125,0.5087890625,32.25,1.6875,6.0625
0.28,-2.0,-6.0,25.0,81.0,49.0,-2.0,-12.0,2.0,-0.335693359375,-0.40234375,0.7701416015625,0.36370849609375,-0.1875,-0.89404296875,0.48974609375,15.25,2.25,-7.9375
0.285,-14.0,-11.0,-30.0,-23.0,-16.0,-11.0,-11.0,-5.0,-0.3380126953125,-0.403564453125,0.76947021484375,0.361572265625,-0.296875,-0.95263671875,0.408203125,-10.8125,1.125,8.4375
0.29,-24.0,-13.0,-35.0,-44.0,-26.0,-8.0,5.0,6.0,-0.338623046875,-0.40545654296875,0.77069091796875,0.356201171875,-0.30712890625,-0.97802734375,0.33154296875,-6.9375,-20.1875,21.0625
0.295,-9.0,-2.0,4.0,7.0,-2.0,-11.0,-14.0,-9.0,-0.33770751953125,-0.406982421875,0.77276611328125,0.350830078125,-0.28466796875,-1.0390625,0.423828125,-4.3125,-25.25,22.9375
0.3,0.0,-10.0,-29.0,1.0,2.0,-7.0,-6.0,-5.0,-0.33349609375,-0.39959716796875,0.77789306640625,0.35211181640625,-0.19775390625,-0.90576171875,0.52587890625,53.0625,-8.5625,12.3125
0.305,-0.32879638671875,-0.39080810546875,0.7818603515625,0.3575439453125,-0.1826171875,-0.69580078125,0.5322265625,59.9375,4.5,-9.5
0.31,2.0,-23.0,-16.0,30.0,26.0,4.0,1.0,5.0,-0.32757568359375,-0.38763427734375,0.783203125,0.35919189453125,-0.25048828125,-0.72705078125,0.49267578125,18.25,1.8125,-4.375
0.315,6.0,-3.0,25.0,56.0,6.0,-1.0,-3.0,-8.0,-0.33001708984375,-0.39056396484375,0.7825927734375,0.35504150390625,-0.271484375,-0.78857421875,0.45068359375,-27.4375,-4.875,14.5
0.32,-23.0,-19.0,-1.0,14.0,-4.0,-4.0,-2.0,-6.0
0.325,11.0,-4.0,-2.0,-12.0,-7.0,1.0,-1.0,0.0,-0.3323974609375,-0.39776611328125,0.7806396484375,0.34906005859375,-0.21728515625,-0.9453125,0.5224609375,-10.125,-2.5625,4.375
0.33,-1.0,7.0,3.0,-11.0,-13.0,-15.0,-5.0,-1.0
0.335,11.0,-16.0,-6.0,16.0,13.0,4.0,1.0,-3.0,-0.33074951171875,-0.39593505859375,0.78082275390625,0.352294921875,-0.1728515625,-0.85986328125,0.4931640625,16.8125,6.0,-10.5
0.34,-1.0,7.0,-8.0,-13.0,-2.0,-1.0,-1.0,0.0,-0.3292236328125,-0.3935546875,0.78118896484375,0.35565185546875,-0.22216796875,-0.80126953125,0.4658203125,19.6875,5.3125,-13.5
0.345,-25.0,-7.0,-45.0,-13.0,-2.0,-6.0,-7.0,-3.0,-0.32867431640625,-0.3935546875,0.78125,0.35601806640625,-0.22314453125,-0.79150390625,0.43798828125,2.125,-2.25,-3.0625
0.35,17.0,18.0,-12.0,-15.0,-5.0,5.0,3.0,-1.0,-0.32843017578125,-0.39642333984375,0.780517578125,0.3546142578125,-0.1904296875,-0.8115234375,0.439453125,-16.375,-7.75,0.4375
0.355,0.0,4.0,2.0,3.0,5.0,-4.0,-4.0,1.0,-0.328369140625,-0.3988037109375,0.77947998046875,0.35430908203125,-0.19384765625,-0.87353515625,0.46923828125,-12.8125,-2.6875,-2.6875
0.36,-15.0,-13.0,-18.0,5.0,3.0,3.0,-2.0,-3.0,-0.32769775390625,-0.400146484375,0.7784423828125,0.355712890625,-0.18212890625,-0.888671875,0.4853515625,-4.8125,1.0,-9.5
0.365,1.0,-1.0,9.0,15.0,-3.0,1.0,-1.0,-7.0,-0.32672119140625,-0.40106201171875,0.7777099609375,0.3570556640625,-0.21826171875,-0.884765625,0.453125,0.4375,-1.6875,-10.75
0.37,12.0,19.0,19.0,2.0,-1.0,-1.0,3.0,8.0,-0.32574462890625,-0.40130615234375,0.77764892578125,0.35791015625,-0.21240234375,-0.86083984375,0.44091796875,3.8125,-2.8125,-6.1875
0.375,3.0,-6.0,26.0,-7.0,1.0,-1.0,-7.0,-7.0,-0.32525634765625,-0.40216064453125,0.77734375,0.35809326171875,-0.2353515625,-0.8662109375,0.4521484375,-2.3125,-4.125,-5.25
0.38,-8.0,-8.0,-4.0,23.0,3.0,0.0,-2.0,-4.0,-0.3245849609375,-0.40313720703125,0.77685546875,0.35858154296875,-0.22607421875,-0.8896484375,0.48583984375,-3.375,-3.0625,-6.5
0.385,5.0,9.0,-7.0,-11.0,-1.0,2.0,4.0,6.0,-0.323974609375,-0.4039306640625,0.7763671875,0.359375,-0.2236328125,-0.87890625,0.4892578125,-2.9375,-1.1875,-7.9375
0.39,-5.0,-3.0,-2.0,-13.0,-3.0,-6.0,-3.0,-3.0,-0.3236083984375,-0.4049072265625,0.7757568359375,0.35992431640625,-0.23779296875,-0.89404296875,0.47998046875,-3.9375,-1.9375,-7.6875
0.395,-1.0,8.0,-18.0,-5.0,-1.0,-2.0,-6.0,1.0,-0.32293701171875,-0.40606689453125,0.7747802734375,0.36126708984375,-0.21875,-0.8916015625,0.47998046875,-1.5,-0.1875,-5.6875
0.4,-3.0,-12.0,-15.0,-3.0,1.0,-1.0,-2.0,-6.0,-0.3228759765625,-0.4063720703125,0.77447509765625,0.361572265625,-0.234375,-0.88427734375,0.48046875,-2.1875,-0.375,-4.125
0.405,-7.0,21.0,-4.0,-24.0,-4.0,-1.0,-6.0,-21.0
0.41,-1.0,-1.0,3.0,12.0,7.0,2.0,1.0,-1.0,-0.32305908203125,-0.40704345703125,0.7740478515625,0.361572265625,-0.23291015625,-0.900390625,0.4794921875,-4.4375,-0.125,-2.9375
0.415,-6.0,8.0,-12.0,-10.0,0.0,2.0,9.0,6.0,-0.3226318359375,-0.4071044921875,0.77386474609375,0.36236572265625,-0.208984375,-0.908203125,0.4951171875,3.6875,0.3125,-2.6875
0.42,-2.0,-2.0,2.0,-2.0,0.0,0.0,-4.0,3.0
0.425,-6.0,-4.0,-16.0,-3.0,-7.0,-3.0,-5.0,-5.0,-0.3223876953125,-0.4066162109375,0.77398681640625,0.36285400390625,-0.212890625,-0.87744140625,0.478515625,3.125,1.0,-2.0625
0.43,3.0,-2.0,-1.0,9.0,5.0,4.0,0.0,-3.0,-0.32305908203125,-0.40740966796875,0.7735595703125,0.36236572265625,-0.2177734375,-0.8984375,0.4638671875,-3.875,-0.625,1.0
0.435,3.0,18.0,21.0,6.0,2.0,-1.0,11.0,4.0,-0.3231201171875,-0.40740966796875,0.77362060546875,0.362060546875,-0.20947265625,-0.89892578125,0.466796875,0.0625,-0.625,1.875
0.44,11.0,12.0,0.0,1.0,1.0,-1.0,-2.0,1.0,-0.32305908203125,-0.40679931640625,0.77398681640625,0.362060546875,-0.20751953125,-0.89013671875,0.47509765625,3.4375,0.4375,1.5625
0.445,-18.0,-24.0,0.0,-5.0,-6.0,-5.0,-2.0,-8.0,-0.322998046875,-0.406005859375,0.7742919921875,0.3623046875,-0.2080078125,-0.880859375,0.478515625,4.375,1.75,1.375
0.45,12.0,8.0,5.0,-1.0,0.0,0.0,2.0,-2.0,-0.32330322265625,-0.4056396484375,0.7742919921875,0.3624267578125,-0.21044921875,-0.876953125,0.4716796875,1.0625,2.125,0.75
0.455,-3.0,-5.0,-9.0,-4.0,-5.0,-3.0,-4.0,-9.0,-0.32342529296875,-0.40576171875,0.77423095703125,0.3623046875,-0.20947265625,-0.876953125,0.474609375,-1.5,0.4375,0.4375
0.46,1.0,-11.0,-3.0,3.0,3.0,-4.0,-1.0,1.0,-0.32379150390625,-0.4063720703125,0.77392578125,0.36187744140625,-0.20068359375,-0.9033203125,0.4755859375,-4.9375,0.3125,1.875
0.465,-7.0,-12.0,-46.0,-7.0,0.0,2.0,1.0,-3.0,-0.32427978515625,-0.4063720703125,0.77386474609375,0.3616943359375,-0.20556640625,-0.90283203125,0.4755859375,-1.0,1.9375,2.625
0.47,-10.0,-6.0,-49.0,-13.0,-7.0,-2.0,0.0,4.0
0.475,5.0,14.0,9.0,-12.0,-3.0,-2.0,-2.0,4.0,-0.3243408203125,-0.40582275390625,0.7740478515625,0.36181640625,-0.21484375,-0.87890625,0.4775390625,2.25,1.375,0.6875
0.48,-3.0,5.0,5.0,-19.0,0.0,4.0,-1.0,0.0,-0.324462890625,-0.40533447265625,0.774169921875,0.36199951171875,-0.20361328125,-0.8896484375,0.478515625,2.0625,2.3125,1.4375
0.485,19.0,-8.0,48.0,29.0,-2.0,-7.0,-4.0,-5.0,-0.324951171875,-0.4049072265625,0.7744140625,0.36163330078125,-0.21337890625,-0.89501953125,0.4736328125,1.3125,1.6875,4.375
0.49,3.0,24.0,11.0,-9.0,-6.0,-1.0,-1.0,-10.0,-0.32537841796875,-0.404541015625,0.7745361328125,0.36126708984375,-0.20849609375,-0.91162109375,0.484375,0.375,2.0,4.4375
0.495,-1.0,6.0,-18.0,3.0,-5.0,-8.0,-7.0,-7.0,-0.3260498046875,-0.40362548828125,0.77484130859375,0.36114501953125,-0.216796875,-0.88818359375,0.46923828125,3.4375,4.0625,4.375
0.5,-32.0,8.0,-27.0,-14.0,-3.0,1.0,-3.0,-9.0,-0.3260498046875,-0.40228271484375,0.77532958984375,0.3614501953125,-0.2080078125,-0.87255859375,0.48876953125,6.5,3.375,2.8125
0.505,21.0,-2.0,3.0,-11.0,-4.0,-3.0,-1.0,3.0,-0.326904296875,-0.40185546875,0.77520751953125,0.36151123046875,-0.21240234375,-0.8857421875,0.47119140625,0.25,5.1875,2.8125
0.51,3.0,33.0,43.0,20.0,10.0,-2.0,3.0,1.0,-0.3275146484375,-0.40118408203125,0.77545166015625,0.3612060546875,-0.234375,-0.8759765625,0.4619140625,2.375,2.4375,4.0
0.515,-9.0,8.0,-8.0,-28.0,-10.0,-2.0,1.0,1.0
0.52,-1.0,-52.0,-15.0,-8.0,0.0,2.0,0.0,-9.0,-0.3282470703125,-0.400634765625,0.7755126953125,0.36102294921875,-0.2294921875,-0.88427734375,0.46728515625,1.4375,3.375,3.1875
0.525,-11.0,-11.0,-42.0,-7.0,-6.0,3.0,-1.0,-9.0,-0.3287353515625,-0.39990234375,0.7755126953125,0.361328125,-0.2197265625,-0.8896484375,0.48388671875,2.625,4.75,1.75
0.53,31.0,2.0,-9.0,24.0,8.0,-4.0,0.0,10.0,-0.3292236328125,-0.3988037109375,0.775634765625,0.36187744140625,-0.2080078125,-0.89208984375,0.47900390625,5.25,6.0,2.125
0.535,-1.0,-13.0,11.0,42.0,22.0,7.0,-3.0,-3.0,-0.32965087890625,-0.39727783203125,0.7760009765625,0.36236572265625,-0.224609375,-0.83056640625,0.4677734375,6.8125,5.3125,2.25
0.54,-21.0,13.0,23.0,4.0,0.0,-1.0,4.0,2.0
0.545,15.0,-3.0,4.0,20.0,2.0,1.0,3.0,5.0,-0.330322265625,-0.3970947265625,0.77606201171875,0.36187744140625,-0.24072265625,-0.8583984375,0.44091796875,0.1875,1.3125,3.3125
0.55,-2.0,-5.0,-18.0,-6.0,-4.0,-3.0,2.0,-7.0,-0.33087158203125,-0.3974609375,0.77587890625,0.3612060546875,-0.208984375,-0.89990234375,0.46826171875,-3.3125,1.1875,4.625
0.555,20.0,17.0,46.0,-4.0,4.0,-1.0,5.0,9.0,-0.33123779296875,-0.397216796875,0.7755126953125,0.36199951171875,-0.1923828125,-0.90380859375,0.50390625,0.1875,6.25,-0.0625
0.56,8.0,-2.0,-1.0,25.0,6.0,-2.0,0.0,1.0,-0.3326416015625,-0.39501953125,0.77557373046875,0.363037109375,-0.2509765625,-0.8232421875,0.451171875,-0.75,3.8125,3.625
0.565
0.57,-15.0,-28.0,-78.0,-52.0,-20.0,-4.0,-7.0,4.0,-0.33428955078125,-0.3973388671875,0.7740478515625,0.36224365234375,-0.20166015625,-0.9052734375,0.458984375,-6.625,3.625,-0.1875
0.575,47.0,1.0,97.0,-1.0,10.0,8.0,-34.0,16.0,-0.33428955078125,-0.39697265625,0.77392578125,0.36285400390625,-0.23486328125,-0.91748046875,0.4580078125,4.25,2.25,-1.5
0.58,-5.0,5.0,65.0,54.0,3.0,-7.0,16.0,-31.0,-0.33428955078125,-0.39605712890625,0.7740478515625,0.3636474609375,-0.20947265625,-0.8525390625,0.47119140625,5.375,4.0625,-0.5
0.585,-4.0,-22.0,-29.0,-51.0,-50.0,-17.0,-7.0,-12.0,-0.334716796875,-0.395751953125,0.77392578125,0.36376953125,-0.23388671875,-0.833984375,0.4814453125,-4.0,1.375,1.75
0.59,-1.0,-7.0,40.0,-50.0,1.0,4.0,14.0,5.0,-0.33502197265625,-0.39532470703125,0.77435302734375,0.36309814453125,-0.2197265625,-0.87451171875,0.46875,1.3125,0.375,6.5625
0.595,-37.0,-50.0,76.0,2.0,-38.0,-6.0,-3.0,-9.0,-0.3353271484375,-0.395263671875,0.77447509765625,0.36260986328125,-0.2529296875,-0.85400390625,0.44775390625,-0.5,-0.8125,1.875
0.6,1.0,-61.0,-54.0,-95.0,-35.0,9.0,28.0,6.0,-0.3353271484375,-0.3963623046875,0.77435302734375,0.36163330078125,-0.22705078125,-0.90625,0.5048828125,-8.0,-3.375,2.875
0.605,13.0,-11.0,-5.0,-20.0,-6.0,-5.0,-4.0,1.0,-0.3349609375,-0.39544677734375,0.77508544921875,0.36138916015625,-0.216796875,-0.83984375,0.521484375,1.875,-0.3125,4.4375
0.61,-18.0,-27.0,-64.0,-65.0,-18.0,1.0,16.0,-20.0,-0.33465576171875,-0.39404296875,0.7762451171875,0.36083984375,-0.251953125,-0.82373046875,0.4521484375,8.25,-2.5,5.125
0.615,-26.0,-79.0,-61.0,-60.0,-49.0,-13.0,-18.0,-12.0,-0.334716796875,-0.394287109375,0.7764892578125,0.3599853515625,-0.2216796875,-0.9130859375,0.45166015625,0.5,-2.375,5.6875
0.62,4.0,14.0,0.0,20.0,-3.0,3.0,8.0,-9.0,-0.33544921875,-0.3958740234375,0.77587890625,0.35882568359375,-0.2392578125,-0.95361328125,0.4716796875,-9.75,-1.5,4.0625
0.625,-27.0,-24.0,-77.0,-22.0,-3.0,2.0,10.0,5.0,-0.33489990234375,-0.3935546875,0.77764892578125,0.35797119140625,-0.240234375,-0.8466796875,0.466796875,8.9375,-1.0,4.25
0.63,3.0,41.0,-29.0,5.0,-5.0,2.0,5.0,2.0
0.635,-30.0,37.0,18.0,-20.0,-15.0,5.0,-11.0,-11.0,-0.33447265625,-0.392333984375,0.77838134765625,0.358154296875,-0.22119140625,-0.79736328125,0.50634765625,4.375,0.6875,2.3125
0.64,-2.0,-23.0,49.0,98.0,36.0,16.0,3.0,5.0,-0.33807373046875,-0.3951416015625,0.77587890625,0.35711669921875,-0.3056640625,-0.935546875,0.47314453125,-19.25,3.6875,1.3125
0.645,-17.0,2.0,45.0,36.0,3.0,-6.0,16.0,-13.0,-0.3382568359375,-0.39434814453125,0.77655029296875,0.35638427734375,-0.21875,-0.88037109375,0.43701171875,5.25,0.25,8.5625
0.65,4.0,2.0,-23.0,41.0,13.0,9.0,2.0,5.0,-0.3380126953125,-0.39215087890625,0.7774658203125,0.35711669921875,-0.259765625,-0.826171875,0.50390625,10.75,3.4375,0.6875
0.655,-19.0,87.0,71.0,2.0,7.0,-20.0,-56.0,-13.0,-0.3387451171875,-0.39202880859375,0.77667236328125,0.35821533203125,-0.2470703125,-0.869140625,0.4921875,-1.875,8.0,-4.375
0.66,19.0,20.0,12.0,57.0,35.0,10.0,17.0,6.0,-0.3402099609375,-0.39349365234375,0.77569580078125,0.35736083984375,-0.25,-0.873046875,0.46875,-13.3125,3.3125,2.5625
0.665,5.0,20.0,8.0,37.0,23.0,2.0,0.0,4.0
0.67,-7.0,0.0,-30.0,-19.0,-21.0,-4.0,-1.0,-11.0,-0.34063720703125,-0.3936767578125,0.77581787109375,0.3564453125,-0.212890625,-0.8828125,0.455078125,-2.1875,0.5,7.6875
0.675,-3.0,30.0,33.0,31.0,6.0,-11.0,11.0,0.0,-0.3406982421875,-0.3916015625,0.77679443359375,0.35662841796875,-0.26220703125,-0.85595703125,0.494140625,9.6875,3.1875,4.4375
0.68,-7.0,-72.0,-72.0,-44.0,-9.0,-3.0,4.0,-11.0,-0.34185791015625,-0.3917236328125,0.77593994140625,0.35723876953125,-0.25390625,-0.84130859375,0.4482421875,-3.4375,7.75,-2.625
0.685,3.0,38.0,42.0,5.0,1.0,-1.0,7.0,-1.0,-0.34344482421875,-0.393798828125,0.7747802734375,0.35589599609375,-0.2802734375,-0.91015625,0.43896484375,-15.25,0.8125,2.1875
0.69,1.0,26.0,-12.0,-80.0,-31.0,-8.0,-7.0,-3.0,-0.3441162109375,-0.3953857421875,0.774169921875,0.3548583984375,-0.232421875,-0.91162109375,0.45947265625,-10.4375,-0.75,4.25
0.695,-8.0,-23.0,46.0,-14.0,-4.0,-10.0,-20.0,7.0,-0.3436279296875,-0.39300537109375,0.77496337890625,0.356201171875,-0.25830078125,-0.8701171875,0.4951171875,14.1875,4.6875,-1.0625
0.7,-38.0,-26.0,-55.0,18.0,15.0,19.0,-44.0,-28.0,-0.34356689453125,-0.39068603515625,0.7752685546875,0.358154296875,-0.26171875,-0.8037109375,0.46240234375,12.9375,8.1875,-4.9375
0.705,-0.3455810546875,-0.3941650390625,0.77325439453125,0.35662841796875,-0.3173828125,-0.88671875,0.3994140625,-23.125,-0.8125,-3.125
0.71,-11.0,11.0,-37.0,-78.0,-20.0,-16.0,-15.0,4.0,-0.34600830078125,-0.39630126953125,0.7723388671875,0.35589599609375,-0.22265625,-0.94775390625,0.45654296875,-11.875,-1.1875,1.6875
0.715,2.0,22.0,-33.0,-39.0,-17.0,-2.0,-3.0,4.0,-0.34405517578125,-0.38946533203125,0.77459716796875,0.36041259765625,-0.29736328125,-0.80029296875,0.51904296875,31.0625,8.625,-4.8125
0.72,26.0,-67.0,-79.0,-72.0,-25.0,-12.0,2.0,7.0
0.725,13.0,-10.0,-65.0,-33.0,-6.0,4.0,-16.0,-2.0,-0.34564208984375,-0.390869140625,0.77325439453125,0.3602294921875,-0.2919921875,-0.76953125,0.40185546875,-12.3125,4.25,-5.0625
0.73,-1.0,-10.0,-10.0,-28.0,-13.0,1.0,17.0,3.0,-0.347900390625,-0.39501953125,0.7716064453125,0.35711669921875,-0.298828125,-0.94287109375,0.42333984375,-29.125,-4.0625,6.0625
0.735,-20.0,0.0,63.0,48.0,3.0,-2.0,-25.0,-8.0,-0.34796142578125,-0.39703369140625,0.7711181640625,0.3558349609375,-0.19970703125,-1.017578125,0.4609375,-8.6875,-3.8125,7.0625
0.74,16.0,20.0,32.0,66.0,8.0,-3.0,2.0,-5.0,-0.3470458984375,-0.392578125,0.77325439453125,0.35699462890625,-0.30517578125,-0.8818359375,0.50537109375,26.0625,2.9375,3.3125
0.745,-8.0,-16.0,7.0,7.0,1.0,-3.0,-3.0,-2.0,-0.34619140625,-0.38629150390625,0.77587890625,0.35894775390625,-0.30419921875,-0.70166015625,0.53662109375,30.125,8.125,2.0
0.75,11.0,10.0,24.0,9.0,2.0,-1.0,3.0,4.0,-0.34747314453125,-0.38568115234375,0.77569580078125,0.35882568359375,-0.267578125,-0.76171875,0.4794921875,-4.3125,7.0625,2.125
0.755,3.0,27.0,3.0,16.0,0.0,-2.0,-5.0,-2.0,-0.35009765625,-0.38818359375,0.77459716796875,0.35595703125,-0.32275390625,-0.96533203125,0.39794921875,-18.0625,-0.3125,10.0625
0.76,0.0,-25.0,12.0,-22.0,-4.0,-6.0,-2.0,-2.0,-0.35198974609375,-0.39239501953125,0.7734375,0.35205078125,-0.32373046875,-1.09326171875,0.3935546875,-22.3125,-9.25,12.0625
0.765,0.0,3.0,-1.0,38.0,6.0,-19.0,-6.0,0.0,-0.35162353515625,-0.39111328125,0.77606201171875,0.34796142578125,-0.35888671875,-1.06201171875,0.44091796875,11.125,-16.625,24.0625
0.77,-4.0,-31.0,-17.0,-13.0,-3.0,9.0,5.0,-5.0,-0.34393310546875,-0.37799072265625,0.7828369140625,0.35491943359375,-0.220703125,-0.7841796875,0.49560546875,50.75,4.4375,-13.6875
0.775,1.0,25.0,13.0,10.0,16.0,2.0,3.0,2.0
0.78,-6.0,-24.0,-51.0,-20.0,-8.0,2.0,1.0,-1.0,-0.34173583984375,-0.3714599609375,0.78582763671875,0.3572998046875,-0.26025390625,-0.67578125,0.4765625,40.5,3.125,1.1875
0.785,-20.0,27.0,39.0,4.0,-4.0,-5.0,-4.0,-4.0,-0.34381103515625,-0.3739013671875,0.78521728515625,0.35406494140625,-0.3115234375,-0.7529296875,0.42919921875,-22.5,-4.0625,9.25
0.79,18.0,-3.0,11.0,14.0,3.0,-10.0,1.0,1.0,-0.3470458984375,-0.38153076171875,0.78277587890625,0.34814453125,-0.31640625,-0.916015625,0.4296875,-52.9375,-10.5625,12.6875
0.795,-1.0,-8.0,9.0,12.0,9.0,8.0,3.0,4.0,-0.34686279296875,-0.3841552734375,0.78265380859375,0.34576416015625,-0.279296875,-1.017578125,0.50634765625,-13.3125,-10.1875,8.25
0.8,-1.0,15.0,5.0,-3.0,-3.0,-5.0,-5.0,-5.0,-0.34320068359375,-0.3795166015625,0.78472900390625,0.34979248046875,-0.216796875,-0.89990234375,0.49560546875,41.6875,-0.4375,-8.4375
0.805,-2.0,-14.0,-10.0,-2.0,2.0,-3.0,-3.0,2.0,-0.34039306640625,-0.374755859375,0.78594970703125,0.35491943359375,-0.21630859375,-0.75,0.50048828125,36.25,7.6875,-15.8125
0.81,-3.0,14.0,9.0,-21.0,-9.0,-1.0,1.0,-4.0
0.815,2.0,7.0,3.0,1.0,-4.0,2.0,0.0,2.0,-0.33941650390625,-0.37286376953125,0.7864990234375,0.35662841796875,-0.26904296875,-0.693359375,0.46044921875,11.9375,1.3125,-7.625
0.82,-4.0,-10.0,-51.0,-6.0,3.0,8.0,10.0,3.0,-0.340576171875,-0.37750244140625,0.78509521484375,0.353759765625,-0.27587890625,-0.77197265625,0.455078125,-32.3125,-8.3125,2.0
0.825,4.0,9.0,-7.0,2.0,-5.0,-6.0,-3.0,-2.0,-0.342041015625,-0.3843994140625,0.78253173828125,0.3504638671875,-0.24169921875,-0.904296875,0.47607421875,-44.125,-8.75,1.75
0.83,-6.0,3.0,6.0,8.0,2.0,2.0,3.0,-1.0,-0.34112548828125,-0.38751220703125,0.78131103515625,0.35064697265625,-0.22998046875,-0.9560546875,0.4716796875,-11.375,-6.375,-7.375
0.835,-2.0,-17.0,-4.0,-7.0,2.0,0.0,1.0,-3.0,-0.3388671875,-0.386474609375,0.78125,0.35406494140625,-0.21630859375,-0.90478515625,0.48388671875,17.0625,1.3125,-15.0625
0.84,7.0,8.0,15.0,7.0,-3.0,-1.0,-1.0,0.0,-0.3360595703125,-0.38446044921875,0.7818603515625,0.35772705078125,-0.224609375,-0.84033203125,0.4775390625,23.3125,-0.8125,-16.125
0.845,-7.0,1.0,-8.0,5.0,0.0,-3.0,-5.0,-5.0,-0.33441162109375,-0.38409423828125,0.78179931640625,0.3597412109375,-0.22412109375,-0.7802734375,0.4658203125,7.1875,-1.6875,-11.625
0.85,-9.0,-20.0,-18.0,-6.0,-2.0,-7.0,-3.0,-1.0,-0.333740234375,-0.38580322265625,0.78118896484375,0.3597412109375,-0.240234375,-0.7822265625,0.4619140625,-8.5625,-5.5625,-6.8125
0.855,2.0,-11.0,8.0,-11.0,-7.0,-6.0,-3.0,3.0,-0.333251953125,-0.389892578125,0.77978515625,0.35894775390625,-0.22900390625,-0.86376953125,0.4931640625,-22.6875,-8.9375,-7.5625
0.86,-1.0,-2.0,-3.0,1.0,0.0,0.0,-1.0,-1.0,-0.33251953125,-0.3935546875,0.77813720703125,0.35919189453125,-0.212890625,-0.94482421875,0.49560546875,-16.3125,-6.1875,-10.1875
0.865,-1.0,14.0,24.0,-2.0,-2.0,4.0,0.0,6.0,-0.33099365234375,-0.3939208984375,0.7777099609375,0.36102294921875,-0.21337890625,-0.92626953125,0.4990234375,4.5625,-1.5625,-11.125
0.87,10.0,6.0,-18.0,4.0,-3.0,-4.0,-6.0,-3.0,-0.32952880859375,-0.393310546875,0.77777099609375,0.3629150390625,-0.2333984375,-0.8466796875,0.4765625,9.125,-1.3125,-10.8125
0.875,-2.0,-7.0,-2.0,-3.0,-3.0,-5.0,-8.0,-2.0,-0.32861328125,-0.39398193359375,0.777587890625,0.363525390625,-0.23779296875,-0.81298828125,0.48095703125,-2.25,-4.25,-7.8125
0.88,15.0,1.0,-7.0,0.0,1.0,3.0,4.0,8.0,-0.3280029296875,-0.3961181640625,0.77679443359375,0.3634033203125,-0.21826171875,-0.875,0.48876953125,-10.6875,-5.25,-6.125
0.885,3.0,-28.0,16.0,27.0,6.0,4.0,1.0,-4.0,-0.327392578125,-0.398193359375,0.77587890625,0.3636474609375,-0.21826171875,-0.90771484375,0.5,-9.5,-4.4375,-7.5
0.89,5.0,2.0,-8.0,-47.0,-18.0,-5.0,-2.0,-1.0,-0.32672119140625,-0.39959716796875,0.775146484375,0.36431884765625,-0.2197265625,-0.9306640625,0.49169921875,-4.8125,-2.875,-7.8125
0.895,2.0,3.0,4.0,2.0,-2.0,3.0,5.0,1.0,-0.3260498046875,-0.39996337890625,0.77490234375,0.36505126953125,-0.22705078125,-0.904296875,0.48193359375,1.3125,-1.8125,-6.25
0.9,4.0,6.0,7.0,-5.0,-5.0,-6.0,-5.0,0.0,-0.3248291015625,-0.4000244140625,0.77496337890625,0.36590576171875,-0.21630859375,-0.8798828125,0.482421875,3.75,-3.75,-6.6875
0.905,0.0,4.0,4.0,-7.0,-1.0,4.0,1.0,-3.0,-0.32391357421875,-0.4002685546875,0.77471923828125,0.36688232421875,-0.20654296875,-0.87158203125,0.49853515625,0.8125,-1.375,-6.75
0.91,3.0,-12.0,-35.0,-27.0,-5.0,-5.0,-3.0,-4.0,-0.32354736328125,-0.40057373046875,0.77447509765625,0.367431640625,-0.21875,-0.8857421875,0.4912109375,-0.625,-0.5625,-4.9375
0.915,-5.0,5.0,14.0,-27.0,-5.0,2.0,2.0,5.0,-0.323974609375,-0.4014892578125,0.77392578125,0.3673095703125,-0.2255859375,-0.908203125,0.48486328125,-5.9375,0.125,-1.6875
0.92,-12.0,-12.0,4.0,8.0,3.0,-1.0,-1.0,-4.0,-0.32415771484375,-0.40234375,0.7735595703125,0.36688232421875,-0.2236328125,-0.91552734375,0.48486328125,-5.1875,-1.4375,-0.5625
0.925,2.0,5.0,-23.0,3.0,-2.0,-1.0,0.0,-2.0,-0.3238525390625,-0.402099609375,0.773681640625,0.36712646484375,-0.20849609375,-0.90673828125,0.5,1.9375,-0.125,-0.5
0.93,-3.0,12.0,15.0,17.0,0.0,2.0,2.0,0.0,-0.32318115234375,-0.400390625,0.7744140625,0.36810302734375,-0.2314453125,-0.8759765625,0.49365234375,5.25,0.0625,-1.0
0.935,-4.0,-2.0,1.0,-12.0,-7.0,-3.0,-2.0,-2.0,-0.32318115234375,-0.40008544921875,0.774658203125,0.367919921875,-0.2158203125,-0.873046875,0.4833984375,1.5,-0.3125,1.5
0.94,0.0,6.0,12.0,5.0,-1.0,-4.0,-2.0,-4.0,-0.3233642578125,-0.39996337890625,0.77484130859375,0.3675537109375,-0.2099609375,-0.8857421875,0.48486328125,-0.375,-0.25,2.8125
0.945,25.0,14.0,12.0,-4.0,-3.0,-4.0,5.0,5.0,-0.32373046875,-0.39984130859375,0.77490234375,0.36724853515625,-0.21630859375,-0.8994140625,0.4931640625,-0.375,1.375,2.5625
0.95,-3.0,-11.0,39.0,4.0,1.0,-2.0,-6.0,-2.0,-0.32403564453125,-0.39886474609375,0.7750244140625,0.36773681640625,-0.208984375,-0.87890625,0.4892578125,4.5625,4.5,1.0
0.955,-11.0,49.0,37.0,-3.0,-5.0,-2.0,1.0,-2.0,-0.3245849609375,-0.39801025390625,0.77496337890625,0.36834716796875,-0.21240234375,-0.87353515625,0.48193359375,3.625,5.6875,0.0
0.96,-8.0,-17.0,-20.0,-41.0,-11.0,-3.0,-3.0,-3.0,-0.32513427734375,-0.397216796875,0.77490234375,0.3687744140625,-0.2119140625,-0.87744140625,0.48388671875,2.6875,5.1875,1.0625
0.965,0.0,-4.0,-4.0,5.0,2.0,0.0,-3.0,-3.0,-0.32562255859375,-0.3966064453125,0.77490234375,0.36895751953125,-0.2041015625,-0.8623046875,0.47705078125,2.0625,4.3125,2.0
0.97,-10.0,-15.0,-35.0,-45.0,-8.0,1.0,0.0,0.0,-0.32623291015625,-0.39605712890625,0.77490234375,0.36907958984375,-0.2138671875,-0.8818359375,0.48095703125,1.8125,4.1875,2.125
0.975,-10.0,-19.0,5.0,33.0,35.0,14.0,3.0,-1.0,-0.327392578125,-0.39593505859375,0.7745361328125,0.368896484375,-0.21923828125,-0.880859375,0.47509765625,-2.375,5.4375,3.0625
0.98,-6.0,-16.0,-16.0,-71.0,-25.0,-5.0,1.0,5.0,-0.3287353515625,-0.395263671875,0.7744140625,0.36871337890625,-0.2158203125,-0.87890625,0.46923828125,1.25,2.75,2.6875
0.985,-7.0,18.0,24.0,-2.0,0.0,-4.0,-2.0,-6.0,-0.3292236328125,-0.39447021484375,0.774658203125,0.36871337890625,-0.21484375,-0.87646484375,0.47216796875,3.625,3.4375,3.75
0.99,8.0,3.0,42.0,87.0,39.0,7.0,2.0,1.0,-0.33099365234375,-0.39324951171875,0.7744140625,0.368896484375,-0.2255859375,-0.86572265625,0.48388671875,-2.25,6.25,2.0
0.995,-6.0,3.0,0.0,-17.0,-34.0,-13.0,-9.0,-5.0,-0.33251953125,-0.39385986328125,0.7738037109375,0.3681640625,-0.2529296875,-0.8984375,0.47265625,-7.6875,4.375,3.125
1.0,-3.0,27.0,-28.0,-21.0,-3.0,0.0,5.0,16.0,-0.3328857421875,-0.3934326171875,0.77398681640625,0.3677978515625,-0.23193359375,-0.89794921875,0.44873046875,3.25,0.625,3.9375
1.005,-39.0,0.0,-62.0,20.0,-1.0,-11.0,-1.0,-7.0,-0.33367919921875,-0.392822265625,0.77410888671875,0.36749267578125,-0.23095703125,-0.90380859375,0.470703125,2.4375,3.6875,5.0625
1.01,3.0,8.0,23.0,-6.0,-7.0,-2.0,-1.0,-4.0,-0.33331298828125,-0.3907470703125,0.77490234375,0.36846923828125,-0.201171875,-0.85498046875,0.509765625,11.25,4.9375,2.0625
1.015,3.0,-37.0,-104.0,-28.0,6.0,4.0,2.0,-5.0,-0.33355712890625,-0.38873291015625,0.7750244140625,0.3699951171875,-0.22265625,-0.796875,0.5224609375,7.125,9.4375,-2.4375
1.02,-53.0,-3.0,35.0,-5.0,9.0,-3.0,-20.0,-41.0,-0.33489990234375,-0.38946533203125,0.77447509765625,0.36920166015625,-0.2685546875,-0.85546875,0.47607421875,-8.9375,2.6875,1.8125
1.025,-19.0,-40.0,-114.0,-95.0,-18.0,-7.0,-19.0,-26.0,-0.33648681640625,-0.3917236328125,0.7735595703125,0.3673095703125,-0.24365234375,-0.9248046875,0.45947265625,-16.1875,-0.8125,6.0
1.03,15.0,58.0,32.0,18.0,9.0,0.0,-23.0,11.0,-0.33648681640625,-0.3905029296875,0.77386474609375,0.3680419921875,-0.21923828125,-0.84423828125,0.48974609375,10.0625,4.25,0.3125
1.035,61.0,-30.0,15.0,-49.0,-7.0,2.0,-11.0,1.0
1.04,27.0,3.0,-7.0,89.0,39.0,11.0,17.0,10.0,-0.33697509765625,-0.3895263671875,0.77392578125,0.36846923828125,-0.2373046875,-0.8271484375,0.49267578125,2.0,5.4375,0.625
1.045,-45.0,-69.0,16.0,38.0,-16.0,-1.0,-29.0,-24.0,-0.33856201171875,-0.38995361328125,0.7734375,0.3675537109375,-0.24609375,-0.8984375,0.43896484375,-5.5,-0.875,4.0
1.05,-11.0,20.0,34.0,50.0,5.0,-1.0,0.0,-2.0
1.055,-2.0,37.0,51.0,56.0,14.0,8.0,14.0,10.0,-0.33843994140625,-0.38946533203125,0.77349853515625,0.36798095703125,-0.1669921875,-0.8740234375,0.515625,1.0,4.5,3.5
1.06,-2.0,-3.0,79.0,68.0,28.0,9.0,8.0,7.0,-0.337890625,-0.3868408203125,0.7742919921875,0.36962890625,-0.1953125,-0.76708984375,0.50634765625,12.875,7.25,-0.875
1.065,-20.0,-27.0,3.0,4.0,-29.0,-17.0,-8.0,-35.0,-0.34014892578125,-0.39300537109375,0.771728515625,0.36639404296875,-0.20458984375,-0.97412109375,0.43994140625,-13.0625,-7.75,4.9375
1.07,6.0,18.0,111.0,69.0,18.0,-3.0,-2.0,5.0
1.075,-6.0,13.0,73.0,99.0,20.0,2.0,-9.0,-2.0,-0.33837890625,-0.39166259765625,0.77301025390625,0.3668212890625,-0.18212890625,-0.92822265625,0.462890625,15.625,-4.8125,3.625
1.08,7.0,-1.0,24.0,44.0,12.0,-6.0,-14.0,6.0,-0.33648681640625,-0.38690185546875,0.7750244140625,0.369384765625,-0.22412109375,-0.76953125,0.53564453125,28.4375,5.0,-2.75
1.085,9.0,-1.0,23.0,44.0,19.0,5.0,14.0,2.0
1.09,-17.0,8.0,-17.0,-40.0,-34.0,-12.0,-18.0,-11.0,-0.337646484375,-0.3868408203125,0.77435302734375,0.3697509765625,-0.2470703125,-0.74365234375,0.44775390625,-5.1875,6.5625,-2.75
1.095,1.0,-2.0,21.0,75.0,25.0,-9.0,2.0,8.0,-0.33990478515625,-0.3909912109375,0.77276611328125,0.36651611328125,-0.30712890625,-0.912109375,0.40087890625,-27.375,-6.25,4.875
1.1,-2.0,12.0,-40.0,-48.0,-26.0,-4.0,-6.0,6.0,-0.33935546875,-0.39306640625,0.77264404296875,0.365234375,-0.18896484375,-0.9443359375,0.4482421875,-7.1875,-8.0625,4.4375
1.105,11.0,25.0,73.0,90.0,10.0,-6.0,-9.0,-4.0,-0.3377685546875,-0.39068603515625,0.77337646484375,0.3675537109375,-0.18994140625,-0.91357421875,0.541015625,17.5625,4.375,-4.0625
1.11,12.0,16.0,-37.0,-9.0,-3.0,-5.0,13.0,8.0,-0.33984375,-0.38946533203125,0.7728271484375,0.3681640625,-0.28515625,-0.7978515625,0.45068359375,-21.75,3.5625,1.375
1.115,-14.0,9.0,-13.0,-25.0,2.0,8.0,9.0,4.0
1.12,-13.0,-76.0,-61.0,-34.0,5.0,-1.0,18.0,5.0,-0.3426513671875,-0.39434814453125,0.77044677734375,0.3653564453125,-0.23046875,-0.93115234375,0.44091796875,-35.25,0.8125,6.1875
1.125,1.0,-3.0,-1.0,-72.0,-29.0,0.0,-5.0,-2.0,-0.34405517578125,-0.3929443359375,0.76971435546875,0.36712646484375,-0.216796875,-0.89208984375,0.51220703125,14.25,12.5625,-0.625
1.13,-19.0,25.0,30.0,39.0,10.0,-10.0,-30.0,-21.0
1.135,12.0,76.0,-3.0,-26.0,-9.0,-5.0,-13.0,-5.0,-0.34588623046875,-0.39105224609375,0.76934814453125,0.36810302734375,-0.3203125,-0.84619140625,0.48388671875,3.5,13.125,-1.875
1.14,-2.0,6.0,3.0,18.0,1.0,-11.0,-28.0,-18.0,-0.3477783203125,-0.39215087890625,0.7689208984375,0.365966796875,-0.34375,-0.87060546875,0.4404296875,-13.0,-1.1875,4.875
1.145,12.0,-2.0,-43.0,-46.0,-16.0,-24.0,-37.0,2.0,-0.34893798828125,-0.3916015625,0.768798828125,0.36578369140625,-0.26220703125,-0.8974609375,0.50732421875,1.375,8.375,1.3125
1.15,8.0,28.0,26.0,-53.0,-49.0,-21.0,-19.0,-9.0,-0.35113525390625,-0.39154052734375,0.767822265625,0.3658447265625,-0.32421875,-0.90771484375,0.45751953125,-5.6875,9.9375,-0.875
1.155,-13.0,-11.0,62.0,-55.0,11.0,1.0,-22.0,-14.0,-0.35198974609375,-0.39044189453125,0.7679443359375,0.3658447265625,-0.29638671875,-0.8896484375,0.46044921875,3.625,4.5625,2.4375
1.16,40.0,30.0,-33.0,34.0,12.0,17.0,24.0,7.0,-0.3524169921875,-0.388916015625,0.7684326171875,0.36614990234375,-0.298828125,-0.8623046875,0.4619140625,6.9375,3.75,1.25
1.165,-11.0,-3.0,-46.0,15.0,3.0,-20.0,-7.0,-19.0,-0.35369873046875,-0.38848876953125,0.76800537109375,0.36627197265625,-0.30517578125,-0.8564453125,0.4833984375,-3.625,6.75,-0.4375
1.17,10.0,-13.0,-67.0,-30.0,-19.0,3.0,19.0,-3.0,-0.35748291015625,-0.3902587890625,0.76605224609375,0.36480712890625,-0.30078125,-0.95263671875,0.44677734375,-2.9375,5.375,5.1875
1.175,8.0,-2.0,8.0,7.0,5.0,3.0,23.0,10.0,-0.35736083984375,-0.3878173828125,0.76751708984375,0.3643798828125,-0.32568359375,-0.89892578125,0.43017578125,15.375,-1.4375,6.9375
1.18,14.0,23.0,-12.0,-35.0,-29.0,-1.0,-2.0,5.0,-0.35577392578125,-0.382080078125,0.770263671875,0.36627197265625,-0.2861328125,-0.7685546875,0.521484375,32.125,4.0625,2.9375
1.185,-17.0,-31.0,-18.0,15.0,12.0,7.0,14.0,-2.0
1.19,0.0,19.0,-4.0,-33.0,-18.0,-8.0,-4.0,-4.0,-0.35968017578125,-0.384765625,0.7691650390625,0.3619384765625,-0.33447265625,-0.96826171875,0.416015625,-42.875,-0.75,13.125
1.195,-33.0,6.0,33.0,-64.0,-26.0,-12.0,-8.0,-15.0,-0.3623046875,-0.38970947265625,0.768798828125,0.35467529296875,-0.3720703125,-1.03955078125,0.333984375,-31.375,-18.6875,24.875
1.2,-8.0,-1.0,-6.0,-29.0,-10.0,4.0,-3.0,-12.0,-0.3603515625,-0.38555908203125,0.77264404296875,0.35272216796875,-0.29638671875,-0.89892578125,0.43408203125,28.75,-12.9375,21.0
1.205,7.0,-9.0,-6.0,4.0,6.0,-3.0,10.0,18.0,-0.35711669921875,-0.380126953125,0.775390625,0.35595703125,-0.2431640625,-0.76513671875,0.47607421875,39.3125,-0.375,-3.8125
1.21,-8.0,15.0,13.0,2.0,4.0,-4.0,-4.0,2.0,-0.35577392578125,-0.37603759765625,0.77679443359375,0.3585205078125,-0.28466796875,-0.7744140625,0.46435546875,27.375,5.1875,-4.5625
1.215,7.0,-7.0,-33.0,-16.0,-18.0,-3.0,1.0,-3.0,-0.35528564453125,-0.372314453125,0.77886962890625,0.35845947265625,-0.27294921875,-0.7490234375,0.48193359375,18.25,1.5,10.1875
1.22,-2.0,2.0,-4.0,-17.0,-12.0,-7.0,-5.0,-2.0,-0.359619140625,-0.37701416015625,0.77801513671875,0.35101318359375,-0.3701171875,-0.880859375,0.490234375,-31.9375,-4.875,13.875
1.225,2.0,2.0,14.0,13.0,24.0,-1.0,-3.0,1.0,-0.3602294921875,-0.38055419921875,0.7772216796875,0.34832763671875,-0.3125,-0.9580078125,0.466796875,-21.375,-8.75,5.8125
1.23,-2.0,-29.0,-40.0,-38.0,-18.0,-6.0,-2.0,-10.0,-0.35845947265625,-0.3828125,0.77740478515625,0.34735107421875,-0.30126953125,-0.94921875,0.4423828125,-4.5,-15.375,-2.3125
1.235,2.0,5.0,12.0,9.0,5.0,1.0,6.0,17.0,-0.3548583984375,-0.38275146484375,0.77886962890625,0.34771728515625,-0.25830078125,-0.95556640625,0.44677734375,15.5,-17.5625,-2.75
1.24,-12.0,12.0,30.0,20.0,3.0,3.0,0.0,-13.0,-0.3507080078125,-0.38079833984375,0.7813720703125,0.34844970703125,-0.2734375,-0.8876953125,0.4248046875,27.875,-18.5,-1.8125
1.245,-5.0,-10.0,10.0,4.0,2.0,3.0,-4.0,2.0,-0.34710693359375,-0.37872314453125,0.7838134765625,0.348876953125,-0.25,-0.8037109375,0.47900390625,20.9375,-14.75,0.4375
1.25,-2.0,-8.0,-14.0,-40.0,-10.0,-1.0,4.0,2.0,-0.3441162109375,-0.3778076171875,0.78521728515625,0.349609375,-0.26171875,-0.7666015625,0.478515625,12.125,-12.25,-5.9375
1.255,-2.0,-5.0,-13.0,-3.0,-2.0,-4.0,-6.0,-5.0,-0.3421630859375,-0.37945556640625,0.7850341796875,0.3502197265625,-0.27783203125,-0.8125,0.4833984375,-3.6875,-10.75,-11.1875
1.26,-4.0,-2.0,-9.0,1.0,-2.0,-3.0,3.0,6.0,-0.3399658203125,-0.3826904296875,0.78436279296875,0.35040283203125,-0.24560546875,-0.88037109375,0.46923828125,-9.5625,-14.0625,-11.5
1.265,3.0,-8.0,-5.0,12.0,-6.0,-2.0,1.0,5.0,-0.3372802734375,-0.38348388671875,0.7847900390625,0.35113525390625,-0.2197265625,-0.8984375,0.47412109375,6.25,-11.6875,-6.3125
1.27,9.0,-2.0,-5.0,-4.0,-4.0,0.0,2.0,5.0,-0.3349609375,-0.383056640625,0.78546142578125,0.35223388671875,-0.224609375,-0.83544921875,0.46484375,11.1875,-7.8125,-6.0
1.275,0.0,-7.0,-14.0,-24.0,-16.0,-2.0,-3.0,-1.0,-0.333740234375,-0.38372802734375,0.785400390625,0.3529052734375,-0.23583984375,-0.814453125,0.48779296875,-0.625,-4.5625,-6.625
1.28,-30.0,-5.0,-19.0,-3.0,1.0,5.0,4.0,1.0,-0.3326416015625,-0.38525390625,0.78509521484375,0.3529052734375,-0.25146484375,-0.83984375,0.46533203125,-4.3125,-7.4375,-6.1875
1.285,-4.0,-5.0,5.0,-7.0,-2.0,-3.0,0.0,-1.0,-0.330810546875,-0.387939453125,0.78448486328125,0.35296630859375,-0.2412109375,-0.8955078125,0.47998046875,-7.9375,-12.375,-9.5
1.29,3.0,-23.0,0.0,7.0,2.0,-3.0,-5.0,-3.0,-0.32861328125,-0.38970947265625,0.7841796875,0.35382080078125,-0.22412109375,-0.892578125,0.49853515625,-2.125,-10.375,-10.875
1.295,-1.0,-4.0,-26.0,-30.0,-10.0,5.0,0.0,-4.0,-0.32598876953125,-0.38983154296875,0.78460693359375,0.35516357421875,-0.2236328125,-0.86376953125,0.517578125,6.75,-8.75,-10.25
1.3,-19.0,4.0,-15.0,-3.0,6.0,-1.0,-3.0,2.0,-0.32476806640625,-0.39044189453125,0.78436279296875,0.35614013671875,-0.23583984375,-0.84228515625,0.51318359375,-0.4375,-3.875,-8.9375
1.305,1.0,9.0,20.0,-4.0,-2.0,-2.0,0.0,-5.0,-0.32373046875,-0.39129638671875,0.78387451171875,0.357177734375,-0.2421875,-0.853515625,0.49951171875,-1.5625,-3.5,-10.5625
1.31,1.0,-6.0,-18.0,-8.0,-8.0,-1.0,0.0,0.0,-0.32080078125,-0.39056396484375,0.78363037109375,0.361083984375,-0.1865234375,-0.8564453125,0.5068359375,7.4375,0.8125,-9.375
1.315,-11.0,-16.0,-7.0,8.0,3.0,0.0,0.0,-6.0,-0.3201904296875,-0.39080810546875,0.7830810546875,0.36260986328125,-0.189453125,-0.85791015625,0.49560546875,1.9375,2.25,-7.8125
1.32,6.0,0.0,8.0,4.0,-6.0,-7.0,-7.0,-1.0,-0.32012939453125,-0.391357421875,0.7825927734375,0.3631591796875,-0.19140625,-0.8564453125,0.49658203125,-2.6875,1.9375,-3.25
1.325,5.0,-1.0,-12.0,-19.0,-2.0,-2.0,1.0,1.0,-0.32049560546875,-0.3924560546875,0.78179931640625,0.36328125,-0.193359375,-0.8828125,0.5068359375,-7.25,2.0,-1.25
1.33,-3.0,2.0,9.0,12.0,5.0,3.0,-3.0,1.0,-0.32086181640625,-0.39276123046875,0.78125,0.3638916015625,-0.21337890625,-0.89013671875,0.498046875,-1.625,3.625,-2.9375
1.335,-3.0,-4.0,23.0,7.0,6.0,12.0,6.0,3.0,-0.320556640625,-0.39263916015625,0.781005859375,0.36480712890625,-0.22607421875,-0.8857421875,0.494140625,3.25,1.1875,-5.3125
1.34,0.0,1.0,-27.0,46.0,8.0,1.0,1.0,-2.0,-0.3199462890625,-0.39276123046875,0.78082275390625,0.36553955078125,-0.23193359375,-0.8818359375,0.49658203125,2.3125,-1.8125,-6.0625
1.345,6.0,-2.0,-18.0,-16.0,-9.0,-14.0,-10.0,-4.0,-0.31927490234375,-0.39306640625,0.78076171875,0.365966796875,-0.232421875,-0.8857421875,0.48583984375,1.8125,-3.3125,-4.8125
1.35,3.0,20.0,11.0,-6.0,-5.0,-1.0,3.0,2.0,-0.31573486328125,-0.39312744140625,0.78155517578125,0.36724853515625,-0.2099609375,-0.85107421875,0.48193359375,10.375,-6.8125,-6.6875
1.355,0.0,21.0,14.0,-1.0,-2.0,-5.0,-2.0,-3.0
1.36,-1.0,2.0,-14.0,-22.0,-10.0,-4.0,0.0,-1.0,-0.31390380859375,-0.3927001953125,0.78204345703125,0.36834716796875,-0.18603515625,-0.84765625,0.52099609375,7.125,-4.875,-6.3125
1.365,-9.0,-7.0,1.0,8.0,5.0,1.0,-2.0,-2.0,-0.31219482421875,-0.39306640625,0.781982421875,0.36956787109375,-0.212890625,-0.8642578125,0.498046875,1.75,-4.8125,-3.875
1.37,-49.0,-9.0,4.0,-6.0,-3.0,-6.0,0.0,-7.0
1.375,5.0,-7.0,0.0,12.0,3.0,-1.0,-1.0,3.0,-0.31170654296875,-0.39471435546875,0.78167724609375,0.3687744140625,-0.19091796875,-0.8720703125,0.484375,-7.0,-6.875,-0.6875
1.38,9.0,7.0,5.0,-12.0,-8.0,-3.0,-2.0,0.0,-0.310546875,-0.3961181640625,0.78179931640625,0.3680419921875,-0.1865234375,-0.8896484375,0.52099609375,2.0,-3.25,-0.1875
1.385,2.0,-2.0,11.0,0.0,0.0,-1.0,-1.0,0.0,-0.30963134765625,-0.39544677734375,0.78216552734375,0.36865234375,-0.19287109375,-0.8681640625,0.5283203125,5.4375,-1.75,-2.75
1.39,13.0,-8.0,16.0,3.0,3.0,1.0,1.0,0.0,-0.30963134765625,-0.39544677734375,0.7822265625,0.36865234375,-0.19921875,-0.87255859375,0.5341796875,0.5625,-0.375,-0.875
1.395,0.0,-15.0,-7.0,9.0,3.0,0.0,2.0,6.0,-0.3095703125,-0.3953857421875,0.7822265625,0.36865234375,-0.2080078125,-0.8779296875,0.53271484375,0.4375,0.0625,0.9375
1.4,3.0,3.0,4.0,11.0,-1.0,-1.0,-2.0,2.0,-0.3095703125,-0.39532470703125,0.78228759765625,0.36865234375,-0.19140625,-0.853515625,0.515625,-0.625,-0.625,0.6875
1.405,-1.0,4.0,-15.0,-9.0,-1.0,-5.0,-3.0,-4.0,-0.3099365234375,-0.39556884765625,0.7821044921875,0.368408203125,-0.18310546875,-0.865234375,0.53271484375,-4.25,1.5625,2.1875
1.41,-1.0,2.0,3.0,4.0,0.0,1.0,3.0,0.0,-0.31011962890625,-0.39569091796875,0.7821044921875,0.36822509765625,-0.1875,-0.88232421875,0.51123046875,-1.125,0.6875,1.75
1.415,-1.0,-5.0,5.0,0.0,-2.0,-3.0,-1.0,-2.0,-0.3099365234375,-0.3951416015625,0.7823486328125,0.36846923828125,-0.18798828125,-0.88720703125,0.53076171875,3.1875,1.25,0.8125
1.42,0.0,2.0,5.0,4.0,0.0,2.0,3.0,5.0,-0.30975341796875,-0.394287109375,0.78271484375,0.3687744140625,-0.19189453125,-0.86376953125,0.52294921875,4.5625,1.25,0.875
1.425,-8.0,-25.0,-37.0,-2.0,-2.0,-6.0,-2.0,0.0,-0.3096923828125,-0.393310546875,0.78314208984375,0.36883544921875,-0.203125,-0.82958984375,0.52734375,3.3125,1.125,1.4375
1.43,-3.0,-11.0,4.0,5.0,7.0,-1.0,-5.0,-4.0
1.435,4.0,2.0,0.0,-10.0,-9.0,-4.0,-3.0,-1.0,-0.31005859375,-0.3936767578125,0.78302001953125,0.36834716796875,-0.205078125,-0.83984375,0.51416015625,-4.8125,0.0,1.5
1.44,1.0,-3.0,4.0,2.0,5.0,7.0,3.0,1.0,-0.3104248046875,-0.39453125,0.78271484375,0.36785888671875,-0.19775390625,-0.8740234375,0.51318359375,-6.5,-0.5,1.25
1.445,7.0,9.0,6.0,-3.0,3.0,5.0,5.0,1.0,-0.3106689453125,-0.39453125,0.78271484375,0.36773681640625,-0.1982421875,-0.88623046875,0.50927734375,0.0,0.75,1.4375
1.45,-44.0,-18.0,-19.0,-17.0,-4.0,1.0,4.0,-5.0,-0.31085205078125,-0.393798828125,0.7828369140625,0.367919921875,-0.20166015625,-0.875,0.5078125,3.75,2.75,1.25
1.455,10.0,-1.0,17.0,27.0,3.0,-2.0,-2.0,4.0,-0.31134033203125,-0.39306640625,0.78289794921875,0.3682861328125,-0.1943359375,-0.86962890625,0.5185546875,2.75,4.75,1.625
1.46,26.0,9.0,53.0,17.0,8.0,3.0,5.0,13.0,-0.31207275390625,-0.390625,0.7833251953125,0.3692626953125,-0.21142578125,-0.85107421875,0.51025390625,1.6875,5.0625,1.4375
1.465,6.0,0.0,34.0,15.0,9.0,-1.0,-4.0,5.0,-0.31353759765625,-0.39111328125,0.78277587890625,0.36871337890625,-0.201171875,-0.88427734375,0.52685546875,-7.9375,6.0,4.0625
1.47,17.0,-59.0,-99.0,-46.0,-15.0,-6.0,-8.0,-8.0,-0.315185546875,-0.3902587890625,0.78216552734375,0.36956787109375,-0.21337890625,-0.859375,0.51171875,-2.5625,5.125,0.3125
1.475,-6.0,-28.0,-48.0,-34.0,-9.0,1.0,-2.0,-4.0,-0.3165283203125,-0.3900146484375,0.781982421875,0.36895751953125,-0.21044921875,-0.91552734375,0.51806640625,-2.125,5.9375,6.5
1.48,-25.0,-9.0,49.0,-7.0,-4.0,3.0,0.0,1.0,-0.31689453125,-0.387939453125,0.78265380859375,0.36944580078125,-0.2060546875,-0.85205078125,0.5068359375,10.5,6.1875,4.125
1.485,-4.0,-21.0,-21.0,-31.0,-3.0,1.0,2.0,1.0,-0.31744384765625,-0.3870849609375,0.7828369140625,0.3695068359375,-0.21630859375,-0.82763671875,0.50390625,2.625,3.625,2.4375
1.49,-8.0,52.0,50.0,-13.0,0.0,-4.0,-2.0,7.0,-0.319091796875,-0.3870849609375,0.78253173828125,0.36883544921875,-0.205078125,-0.87255859375,0.5205078125,-5.9375,7.1875,6.9375
1.495,15.0,11.0,24.0,44.0,6.0,-2.0,3.0,-1.0
1.5,-1.0,-22.0,-55.0,14.0,22.0,7.0,1.0,-2.0,-0.32000732421875,-0.38592529296875,0.78271484375,0.3687744140625,-0.2177734375,-0.8115234375,0.49462890625,2.5625,6.0625,4.375
1.505,3.0,-29.0,4.0,-46.0,-18.0,-8.0,-4.0,2.0,-0.32098388671875,-0.38616943359375,0.78228759765625,0.3685302734375,-0.22802734375,-0.86279296875,0.501953125,-4.3125,3.75,1.5625
1.51,-9.0,2.0,-10.0,19.0,2.0,1.0,-1.0,-9.0,-0.3228759765625,-0.38714599609375,0.7813720703125,0.3677978515625,-0.2119140625,-0.943359375,0.5185546875,-9.625,7.1875,5.6875
1.515,18.0,34.0,64.0,57.0,14.0,3.0,8.0,6.0,-0.3233642578125,-0.38531494140625,0.78179931640625,0.36834716796875,-0.2265625,-0.890625,0.5087890625,9.8125,6.375,3.375
1.52,14.0,-6.0,39.0,22.0,-2.0,1.0,-2.0,-1.0,-0.3238525390625,-0.38372802734375,0.7822265625,0.36883544921875,-0.2275390625,-0.8271484375,0.47802734375,8.5625,5.375,2.1875
1.525,-8.0,-3.0,-42.0,35.0,-5.0,-4.0,-10.0,-10.0,-0.32672119140625,-0.38507080078125,0.78045654296875,0.36859130859375,-0.2001953125,-0.8671875,0.53173828125,-12.5,8.375,0.6875
1.53,7.0,32.0,-6.0,13.0,-8.0,-6.0,-2.0,7.0,-0.327392578125,-0.384521484375,0.7799072265625,0.3697509765625,-0.22265625,-0.8837890625,0.5029296875,2.6875,8.25,-2.9375
1.535,-4.0,-21.0,79.0,66.0,14.0,0.0,-1.0,-2.0,-0.32818603515625,-0.3841552734375,0.77984619140625,0.36956787109375,-0.25537109375,-0.89208984375,0.48486328125,1.4375,2.9375,2.125
1.54,-9.0,6.0,42.0,-7.0,-6.0,-2.0,18.0,12.0,-0.32879638671875,-0.382568359375,0.780517578125,0.36920166015625,-0.2109375,-0.8408203125,0.49267578125,6.6875,4.5625,8.75
1.545,2.0,0.0,-4.0,13.0,3.0,3.0,-2.0,2.0,-0.3299560546875,-0.382568359375,0.77978515625,0.36968994140625,-0.20654296875,-0.8056640625,0.49658203125,-5.1875,8.75,-0.5
1.55,-14.0,-55.0,-66.0,50.0,32.0,6.0,-8.0,-12.0,-0.33172607421875,-0.38348388671875,0.778564453125,0.36968994140625,-0.24267578125,-0.8662109375,0.48095703125,-9.375,7.75,-0.8125
1.555,-11.0,24.0,-85.0,-96.0,-10.0,2.0,-2.0,-1.0,-0.33306884765625,-0.384521484375,0.7777099609375,0.3692626953125,-0.21923828125,-0.88623046875,0.46484375,0.375,0.5,2.8125
1.56,7.0,-22.0,-84.0,5.0,-5.0,4.0,32.0,8.0,-0.33319091796875,-0.38299560546875,0.77825927734375,0.3695068359375,-0.23779296875,-0.87109375,0.48974609375,8.625,3.375,3.3125
1.565,-21.0,26.0,79.0,36.0,-30.0,-9.0,1.0,-17.0,-0.33349609375,-0.38238525390625,0.77783203125,0.37078857421875,-0.21337890625,-0.8291015625,0.4931640625,2.5625,7.25,-3.6875
1.57,-7.0,34.0,-79.0,-71.0,-24.0,-5.0,-10.0,-39.0,-0.33447265625,-0.38275146484375,0.77716064453125,0.37091064453125,-0.23583984375,-0.83642578125,0.484375,-5.125,5.0,-0.6875
1.575,25.0,53.0,69.0,62.0,5.0,8.0,8.0,19.0,-0.3350830078125,-0.3831787109375,0.77728271484375,0.36968994140625,-0.2333984375,-0.82666015625,0.46337890625,-5.125,-1.1875,6.1875
1.58,0.0,-25.0,45.0,0.0,5.0,-11.0,-16.0,-27.0,-0.33575439453125,-0.384033203125,0.77691650390625,0.3690185546875,-0.205078125,-0.85986328125,0.5166015625,-8.9375,2.0625,4.375
1.585,-7.0,52.0,-28.0,-65.0,8.0,7.0,-33.0,-10.0,-0.33636474609375,-0.38494873046875,0.77618408203125,0.36895751953125,-0.216796875,-0.9267578125,0.48828125,-5.125,2.8125,0.8125
1.59,11.0,24.0,62.0,-26.0,-1.0,4.0,20.0,22.0,-0.33642578125,-0.38360595703125,0.77685546875,0.3690185546875,-0.24853515625,-0.83984375,0.462890625,8.375,1.5625,3.125
1.595,-32.0,38.0,16.0,-67.0,-21.0,-11.0,-9.0,-48.0,-0.33795166015625,-0.38604736328125,0.7755126953125,0.36785888671875,-0.263671875,-0.8876953125,0.5009765625,-11.1875,-0.375,-0.125
1.6,21.0,-48.0,-13.0,52.0,8.0,-1.0,1.0,-17.0
1.605,-6.0,-16.0,-65.0,-55.0,-26.0,11.0,-19.0,-10.0,-0.3382568359375,-0.38677978515625,0.7752685546875,0.36737060546875,-0.23828125,-0.892578125,0.486328125,-4.6875,-0.25,1.5
1.61,-14.0,-18.0,-8.0,2.0,-13.0,-11.0,16.0,-7.0,-0.3385009765625,-0.3865966796875,0.775146484375,0.36761474609375,-0.2470703125,-0.86279296875,0.46728515625,0.9375,1.75,-0.5625
1.615,-11.0,-7.0,-73.0,5.0,-4.0,1.0,10.0,9.0,-0.3389892578125,-0.38702392578125,0.77484130859375,0.36724853515625,-0.265625,-0.8388671875,0.4853515625,-5.5625,0.625,-0.4375
1.62,7.0,-27.0,-23.0,73.0,26.0,2.0,0.0,-3.0,-0.3397216796875,-0.38763427734375,0.7742919921875,0.3671875,-0.26513671875,-0.8935546875,0.49560546875,-5.8125,2.375,-1.0625
1.625,-11.0,-38.0,-80.0,-94.0,-55.0,-11.0,-4.0,14.0,-0.3392333984375,-0.385986328125,0.77484130859375,0.3681640625,-0.26318359375,-0.8095703125,0.49560546875,8.75,2.25,-3.25
1.63,10.0,32.0,105.0,90.0,34.0,8.0,-7.0,-14.0,-0.34063720703125,-0.3880615234375,0.773681640625,0.36712646484375,-0.29150390625,-0.90576171875,0.4560546875,-14.1875,-0.125,-0.5625
1.635,35.0,25.0,-36.0,-8.0,12.0,5.0,-53.0,20.0,-0.3406982421875,-0.38775634765625,0.7740478515625,0.3665771484375,-0.23583984375,-0.89404296875,0.4970703125,0.625,-0.25,4.875
1.64,-17.0,18.0,64.0,-73.0,2.0,6.0,28.0,14.0,-0.34088134765625,-0.3853759765625,0.774658203125,0.36761474609375,-0.26123046875,-0.82861328125,0.53125,9.125,7.625,0.4375
1.645,10.0,38.0,84.0,127.0,65.0,15.0,4.0,2.0,-0.34307861328125,-0.38677978515625,0.7730712890625,0.36737060546875,-0.32958984375,-0.87744140625,0.46728515625,-14.25,6.5625,-4.6875
1.65,9.0,-38.0,-12.0,-10.0,-33.0,-14.0,-11.0,-3.0,-0.3436279296875,-0.38665771484375,0.77325439453125,0.36663818359375,-0.2939453125,-0.8798828125,0.49365234375,-2.5625,-0.375,2.6875
1.655,-14.0,-25.0,-70.0,-32.0,-16.0,-12.0,5.0,-1.0,-0.34368896484375,-0.38665771484375,0.77374267578125,0.3656005859375,-0.2421875,-0.91748046875,0.48876953125,-0.25,-2.375,7.6875
1.66,-1.0,-2.0,49.0,22.0,1.0,-3.0,-9.0,-11.0,-0.34112548828125,-0.37841796875,0.77874755859375,0.365966796875,-0.25927734375,-0.7412109375,0.56396484375,35.875,2.1875,3.0625
1.665,7.0,35.0,39.0,4.0,-3.0,-3.0,3.0,1.0,-0.3433837890625,-0.38238525390625,0.77740478515625,0.362548828125,-0.30517578125,-0.98486328125,0.44873046875,-16.3125,-9.5,9.75
1.67,0.0,-8.0,-11.0,-8.0,-6.0,4.0,-3.0,2.0,-0.34283447265625,-0.38250732421875,0.778564453125,0.36053466796875,-0.2353515625,-0.947265625,0.43896484375,4.6875,-9.1875,13.375
1.675,1.0,3.0,-17.0,-29.0,-16.0,2.0,8.0,-5.0,-0.34136962890625,-0.37890625,0.78125,0.35992431640625,-0.2958984375,-0.92626953125,0.5078125,24.6875,-6.375,11.6875
1.68,-4.0,4.0,-36.0,-7.0,-3.0,-4.0,-4.0,-1.0,-0.33953857421875,-0.3721923828125,0.78485107421875,0.36077880859375,-0.31787109375,-0.76220703125,0.52978515625,39.125,-0.6875,8.25
1.685,-2.0,-8.0,2.0,19.0,11.0,7.0,2.0,-1.0,-0.3388671875,-0.36883544921875,0.78594970703125,0.3624267578125,-0.2626953125,-0.68017578125,0.49755859375,16.875,5.3125,-2.625
1.69,-4.0,-6.0,-51.0,-11.0,-4.0,0.0,0.0,-3.0,-0.34002685546875,-0.37237548828125,0.7841796875,0.361572265625,-0.28173828125,-0.81787109375,0.45556640625,-22.25,-2.125,-5.5
1.695,-18.0,-2.0,10.0,10.0,1.0,9.0,10.0,-2.0,-0.33953857421875,-0.377685546875,0.7835693359375,0.3577880859375,-0.22998046875,-0.9228515625,0.4853515625,-5.5625,-9.5,5.1875
1.7,4.0,-15.0,-12.0,13.0,5.0,-1.0,-5.0,5.0
1.705,4.0,-9.0,-2.0,30.0,21.0,1.0,-5.0,-1.0,-0.339111328125,-0.37713623046875,0.7840576171875,0.35772705078125,-0.2392578125,-0.87841796875,0.53076171875,3.0625,-0.375,3.25
1.71,0.0,-3.0,8.0,14.0,7.0,-7.0,-8.0,-7.0,-0.33782958984375,-0.3758544921875,0.784423828125,0.35955810546875,-0.2353515625,-0.83154296875,0.48046875,13.125,0.8125,-6.1875
1.715,-4.0,-2.0,-3.0,-12.0,-6.0,-3.0,-2.0,-4.0,-0.3367919921875,-0.375244140625,0.78436279296875,0.3612060546875,-0.24560546875,-0.8232421875,0.49853515625,7.125,0.8125,-8.0625
1.72,1.0,6.0,12.0,2.0,-1.0,5.0,-1.0,0.0,-0.3355712890625,-0.37554931640625,0.78460693359375,0.36151123046875,-0.2451171875,-0.787109375,0.49267578125,0.625,-5.8125,-4.5
1.725,4.0,1.0,-19.0,-24.0,-11.0,-8.0,-2.0,-1.0,-0.3333740234375,-0.38055419921875,0.7840576171875,0.3594970703125,-0.2392578125,-0.85595703125,0.48046875,-13.75,-13.0,-1.9375
1.73,-5.0,5.0,-4.0,-19.0,-6.0,0.0,0.0,-4.0,-0.3314208984375,-0.383056640625,0.783935546875,0.3590087890625,-0.20654296875,-0.89599609375,0.49951171875,-7.1875,-13.0625,-4.1875
1.735,-4.0,5.0,13.0,-6.0,-3.0,2.0,3.0,-3.0,-0.32745361328125,-0.3834228515625,0.7845458984375,0.36077880859375,-0.23388671875,-0.84375,0.4921875,10.3125,-5.75,-5.5625
1.74,3.0,1.0,-33.0,-12.0,-10.0,-7.0,-2.0,-4.0,-0.32598876953125,-0.383544921875,0.784912109375,0.36126708984375,-0.2392578125,-0.806640625,0.4990234375,3.0625,-6.625,-5.875
1.745,6.0,12.0,-9.0,12.0,2.0,-3.0,-1.0,-4.0,-0.32379150390625,-0.38751220703125,0.78387451171875,0.36126708984375,-0.2119140625,-0.8779296875,0.5185546875,-11.6875,-7.8125,-6.375
1.75,1.0,9.0,3.0,6.0,0.0,-3.0,-3.0,-5.0,-0.32269287109375,-0.3890380859375,0.78363037109375,0.36114501953125,-0.2255859375,-0.90771484375,0.49951171875,-3.625,-7.8125,-4.25
1.755,-12.0,-12.0,-15.0,-13.0,-9.0,-5.0,-4.0,-3.0,-0.32098388671875,-0.3890380859375,0.78411865234375,0.3616943359375,-0.208984375,-0.8837890625,0.5283203125,4.6875,-6.3125,-4.0
1.76,-4.0,-18.0,-28.0,14.0,3.0,5.0,6.0,-1.0,-0.31964111328125,-0.3887939453125,0.7843017578125,0.36260986328125,-0.22998046875,-0.8515625,0.50830078125,5.3125,-4.0,-7.0
1.765,12.0,8.0,-19.0,-3.0,0.0,-2.0,-3.0,4.0,-0.31842041015625,-0.38922119140625,0.7841796875,0.363525390625,-0.21923828125,-0.85107421875,0.5341796875,-0.1875,-3.5625,-7.75
1.77,-5.0,-28.0,-28.0,-20.0,-6.0,-1.0,-2.0,0.0,-0.31793212890625,-0.390625,0.78363037109375,0.36358642578125,-0.22412109375,-0.85791015625,0.50390625,-6.6875,-4.125,-5.4375
1.775,-10.0,-3.0,-8.0,-8.0,-3.0,8.0,1.0,-2.0,-0.31634521484375,-0.39166259765625,0.78350830078125,0.36407470703125,-0.2109375,-0.87646484375,0.5185546875,2.1875,-2.8125,-4.75
1.78,2.0,15.0,-2.0,-6.0,1.0,-2.0,-2.0,-3.0,-0.31549072265625,-0.3916015625,0.78350830078125,0.364990234375,-0.21142578125,-0.873046875,0.5283203125,2.6875,-1.1875,-5.4375
1.785,-3.0,19.0,15.0,3.0,-1.0,-5.0,-3.0,-2.0,-0.31512451171875,-0.39208984375,0.78314208984375,0.36553955078125,-0.22265625,-0.8662109375,0.51171875,-2.8125,-1.25,-1.625
1.79,-5.0,-13.0,-4.0,-19.0,-1.0,4.0,4.0,-1.0,-0.31494140625,-0.3935546875,0.7825927734375,0.36529541015625,-0.201171875,-0.88427734375,0.515625,-1.8125,-0.8125,-1.5625
1.795,-11.0,19.0,32.0,13.0,4.0,-2.0,-6.0,-6.0
1.8,-4.0,8.0,4.0,3.0,-2.0,0.0,-2.0,-3.0,-0.3145751953125,-0.393310546875,0.78253173828125,0.36602783203125,-0.2041015625,-0.87646484375,0.5126953125,2.625,0.8125,-3.4375
1.805,8.0,4.0,39.0,7.0,-3.0,2.0,1.0,3.0,-0.314208984375,-0.39324951171875,0.7823486328125,0.36676025390625,-0.201171875,-0.8779296875,0.51123046875,2.125,0.75,-3.6875
1.81,-1.0,-9.0,-10.0,-1.0,-1.0,13.0,14.0,6.0,-0.3135986328125,-0.39337158203125,0.78253173828125,0.3668212890625,-0.19873046875,-0.85986328125,0.49560546875,-0.5625,-2.5625,-0.1875
1.815,-15.0,-12.0,-24.0,-5.0,-10.0,-11.0,-7.0,4.0
1.82,-22.0,8.0,-8.0,-5.0,-6.0,-7.0,-6.0,-9.0,-0.31329345703125,-0.39349365234375,0.7825927734375,0.36669921875,-0.19677734375,-0.86328125,0.5078125,0.0,-1.625,0.25
1.825,18.0,-5.0,-3.0,6.0,9.0,4.0,2.0,0.0,-0.3131103515625,-0.393310546875,0.78265380859375,0.36700439453125,-0.1962890625,-0.8603515625,0.5126953125,1.125,0.625,-0.6875
1.83,4.0,-2.0,9.0,0.0,5.0,1.0,-9.0,-4.0,-0.31317138671875,-0.39337158203125,0.782470703125,0.36724853515625,-0.20556640625,-0.86767578125,0.51025390625,-0.5625,1.125,-1.4375
1.835,7.0,15.0,-4.0,-6.0,-6.0,-8.0,-4.0,2.0,-0.31341552734375,-0.39434814453125,0.7822265625,0.3665771484375,-0.201171875,-0.880859375,0.49853515625,-0.6875,-2.5625,1.1875
1.84,0.0,9.0,15.0,-3.0,0.0,0.0,1.0,-4.0,-0.31292724609375,-0.39410400390625,0.78240966796875,0.36669921875,-0.1923828125,-0.86181640625,0.51513671875,1.9375,-1.125,-0.3125
1.845,2.0,-2.0,-8.0,1.0,-1.0,-4.0,-2.0,-3.0
1.85,5.0,-7.0,1.0,-7.0,4.0,2.0,2.0,-4.0,-0.31292724609375,-0.39410400390625,0.782470703125,0.36676025390625,-0.19970703125,-0.853515625,0.5244140625,0.875,0.6875,-0.75
1.855,1.0,-16.0,-5.0,6.0,-3.0,0.0,3.0,6.0,-0.31304931640625,-0.39398193359375,0.782470703125,0.36669921875,-0.2060546875,-0.85986328125,0.5185546875,-0.875,1.0,0.625
1.86,-8.0,-3.0,5.0,-19.0,-6.0,-3.0,0.0,1.0,-0.31341552734375,-0.39453125,0.7822265625,0.36627197265625,-0.21484375,-0.88134765625,0.51708984375,-5.0625,-0.25,1.0
1.865,-9.0,-11.0,-2.0,6.0,1.0,-1.0,1.0,-10.0,-0.3138427734375,-0.39459228515625,0.7822265625,0.365966796875,-0.21142578125,-0.8837890625,0.50537109375,-1.25,0.9375,1.8125
1.87,3.0,24.0,-11.0,0.0,-6.0,-1.0,3.0,1.0,-0.31378173828125,-0.39385986328125,0.782470703125,0.36614990234375,-0.1982421875,-0.88818359375,0.5244140625,3.6875,1.8125,1.9375
1.875,-9.0,22.0,3.0,5.0,3.0,2.0,0.0,-1.0,-0.31390380859375,-0.39239501953125,0.7828369140625,0.36688232421875,-0.19482421875,-0.8603515625,0.546875,5.8125,5.6875,1.125
1.88,4.0,-12.0,-22.0,2.0,3.0,3.0,0.0,3.0,-0.31451416015625,-0.39093017578125,0.78289794921875,0.3677978515625,-0.21142578125,-0.85546875,0.537109375,5.1875,7.9375,-0.3125
1.885,9.0,1.0,5.0,-8.0,1.0,0.0,-1.0,0.0
1.89,9.0,-14.0,-15.0,23.0,2.0,1.0,0.0,-8.0,-0.3155517578125,-0.39031982421875,0.7825927734375,0.36822509765625,-0.2255859375,-0.86279296875,0.5205078125,-0.125,7.1875,0.0625
1.895,3.0,-1.0,3.0,-2.0,2.0,-2.0,-2.0,-2.0,-0.31671142578125,-0.3905029296875,0.7823486328125,0.36749267578125,-0.228515625,-0.9248046875,0.5244140625,-4.25,3.4375,5.0625
1.9,-3.0,21.0,14.0,20.0,-1.0,-3.0,0.0,2.0,-0.3184814453125,-0.3876953125,0.78338623046875,0.3668212890625,-0.2177734375,-0.86767578125,0.5234375,7.25,5.5,7.3125
1.905,7.0,9.0,-13.0,-2.0,-2.0,-6.0,-2.0,-3.0,-0.3197021484375,-0.38604736328125,0.78375244140625,0.36663818359375,-0.2177734375,-0.876953125,0.52587890625,5.0625,8.375,8.125
1.91,15.0,2.0,2.0,-9.0,-1.0,2.0,0.0,23.0,-0.3206787109375,-0.38421630859375,0.78411865234375,0.366943359375,-0.22705078125,-0.8701171875,0.5185546875,7.4375,8.4375,4.8125
1.915,-13.0,-5.0,7.0,4.0,8.0,1.0,-5.0,-10.0,-0.323486328125,-0.3819580078125,0.78466796875,0.3656005859375,-0.220703125,-0.869140625,0.5224609375,2.625,5.9375,11.0625
1.92,-6.0,-10.0,-25.0,-7.0,-12.0,-4.0,1.0,-1.0
1.925,2.0,-54.0,-16.0,-53.0,-13.0,-4.0,-7.0,-7.0,-0.32440185546875,-0.38043212890625,0.7852783203125,0.36517333984375,-0.2294921875,-0.83935546875,0.49658203125,5.9375,5.375,8.125
1.93,-11.0,-13.0,7.0,-8.0,-6.0,-4.0,-6.0,-2.0,-0.3271484375,-0.37896728515625,0.78515625,0.364501953125,-0.22412109375,-0.8828125,0.490234375,1.625,6.4375,6.5
1.935,-18.0,17.0,-5.0,-21.0,-21.0,-7.0,-2.0,-7.0,-0.328125,-0.37762451171875,0.785400390625,0.36444091796875,-0.24072265625,-0.82080078125,0.4755859375,5.25,6.125,4.875
1.94,2.0,53.0,30.0,-17.0,-15.0,-3.0,-3.0,4.0,-0.32855224609375,-0.37628173828125,0.78594970703125,0.3642578125,-0.23974609375,-0.806640625,0.505859375,4.8125,3.5,5.125
1.945,7.0,26.0,56.0,53.0,14.0,-3.0,-1.0,10.0,-0.3294677734375,-0.3763427734375,0.78558349609375,0.3641357421875,-0.22509765625,-0.83447265625,0.517578125,-4.0,5.375,2.875
1.95,-3.0,4.0,-12.0,-20.0,-13.0,-5.0,0.0,3.0,-0.3299560546875,-0.37628173828125,0.78533935546875,0.36431884765625,-0.2392578125,-0.8759765625,0.4970703125,0.625,3.0,0.75
1.955,-6.0,-28.0,-7.0,9.0,5.0,-1.0,-9.0,-2.0,-0.3304443359375,-0.37554931640625,0.785400390625,0.364501953125,-0.2255859375,-0.85986328125,0.48388671875,4.5625,4.625,3.3125
1.96,-8.0,-32.0,-43.0,-44.0,-32.0,-7.0,-3.0,6.0,-0.33099365234375,-0.37432861328125,0.78564453125,0.36480712890625,-0.21728515625,-0.80078125,0.51904296875,3.375,6.4375,4.0
1.965,-7.0,34.0,76.0,82.0,12.0,-2.0,5.0,-18.0,-0.33209228515625,-0.37420654296875,0.78515625,0.364990234375,-0.24267578125,-0.8037109375,0.50830078125,-4.0625,6.875,0.375
1.97,-4.0,34.0,-48.0,-16.0,0.0,-1.0,3.0,-1.0,-0.33416748046875,-0.37518310546875,0.78399658203125,0.364501953125,-0.22314453125,-0.87353515625,0.501953125,-2.0,3.625,4.4375
1.975,18.0,-41.0,-21.0,5.0,10.0,19.0,10.0,16.0
1.98,17.0,0.0,18.0,125.0,58.0,-14.0,-3.0,-4.0,-0.33447265625,-0.374267578125,0.7841796875,0.36480712890625,-0.22705078125,-0.84228515625,0.52978515625,2.9375,4.9375,2.875
1.985,7.0,-4.0,9.0,9.0,21.0,12.0,7.0,-5.0,-0.33551025390625,-0.37261962890625,0.7841796875,0.3656005859375,-0.2626953125,-0.78173828125,0.494140625,5.125,9.5,0.1875
1.99,7.0,4.0,-4.0,-34.0,18.0,-4.0,-6.0,8.0,-0.33612060546875,-0.3720703125,0.78369140625,0.36663818359375,-0.25634765625,-0.80810546875,0.50048828125,1.125,7.125,-3.8125
1.995,11.0,41.0,12.0,16.0,15.0,4.0,-8.0,8.0,-0.33636474609375,-0.37225341796875,0.783447265625,0.36669921875,-0.24560546875,-0.857421875,0.4736328125,0.25,1.1875,0.25
2.0,-39.0,-103.0,-110.0,-79.0,-30.0,-6.0,-32.0,-12.0,-0.3382568359375,-0.37353515625,0.78228759765625,0.3662109375,-0.2587890625,-0.8349609375,0.50830078125,-11.5,5.0,-2.375
2.005,-5.0,-60.0,7.0,-28.0,-33.0,-15.0,-6.0,-13.0,-0.3388671875,-0.3743896484375,0.78155517578125,0.36627197265625,-0.23828125,-0.80029296875,0.484375,-7.625,3.1875,-1.8125
2.01,16.0,13.0,34.0,58.0,-5.0,-1.0,4.0,-6.0,-0.33856201171875,-0.3748779296875,0.78143310546875,0.3662109375,-0.220703125,-0.89697265625,0.50732421875,-0.875,-0.9375,1.5625
2.015,-2.0,-6.0,-77.0,-73.0,-21.0,2.0,0.0,5.0,-0.3382568359375,-0.373291015625,0.7818603515625,0.36724853515625,-0.23876953125,-0.822265625,0.537109375,7.875,4.625,-0.625
2.02,31.0,19.0,100.0,56.0,11.0,-5.0,3.0,23.0,-0.33819580078125,-0.37298583984375,0.78173828125,0.36785888671875,-0.26318359375,-0.7900390625,0.5078125,-0.25,1.9375,-3.75
2.025,3.0,-43.0,-18.0,11.0,3.0,-5.0,16.0,7.0,-0.33843994140625,-0.37408447265625,0.78143310546875,0.3671875,-0.2587890625,-0.85498046875,0.4912109375,-6.5625,-2.25,0.875
2.03,7.0,-7.0,-29.0,-24.0,-4.0,0.0,27.0,12.0,-0.33837890625,-0.3748779296875,0.78118896484375,0.366943359375,-0.23974609375,-0.8701171875,0.521484375,-5.1875,-1.0,0.25
2.035,17.0,12.0,35.0,13.0,24.0,16.0,47.0,9.0,-0.33831787109375,-0.3739013671875,0.781494140625,0.36737060546875,-0.26611328125,-0.87255859375,0.5263671875,5.1875,2.3125,0.375
2.04,6.0,56.0,24.0,-21.0,-15.0,-9.0,5.0,11.0,-0.33978271484375,-0.375244140625,0.7799072265625,0.36798095703125,-0.2587890625,-0.845703125,0.509765625,-8.8125,2.75,-2.5625
2.045,-14.0,-3.0,27.0,-1.0,-17.0,-13.0,-37.0,-27.0
2.05,6.0,1.0,-97.0,-69.0,-21.0,-6.0,-16.0,-4.0,-0.340576171875,-0.37603759765625,0.77947998046875,0.36737060546875,-0.27734375,-0.8515625,0.45654296875,-5.3125,0.4375,0.875
2.055,-22.0,-16.0,-24.0,-32.0,-60.0,-16.0,0.0,-23.0,-0.34063720703125,-0.37469482421875,0.779296875,0.3690185546875,-0.251953125,-0.83203125,0.50390625,5.5625,8.3125,-1.875
2.06,-21.0,-68.0,-33.0,-26.0,-19.0,6.0,-33.0,-4.0
2.065,8.0,-7.0,48.0,25.0,1.0,-11.0,13.0,9.0,-0.34222412109375,-0.37628173828125,0.77825927734375,0.36822509765625,-0.30419921875,-0.8486328125,0.443359375,-11.8125,1.5625,-1.1875
2.07,8.0,6.0,72.0,57.0,13.0,-1.0,22.0,6.0,-0.3427734375,-0.3773193359375,0.77783203125,0.36749267578125,-0.2294921875,-0.87255859375,0.46337890625,-6.0,0.0625,3.6875
2.075,24.0,21.0,-13.0,-89.0,-62.0,-16.0,9.0,0.0,-0.3436279296875,-0.3779296875,0.77728271484375,0.36724853515625,-0.26220703125,-0.86767578125,0.49072265625,-5.9375,3.0,0.6875
2.08,-23.0,22.0,-16.0,-64.0,-6.0,-8.0,-23.0,-9.0,-0.3438720703125,-0.37677001953125,0.7772216796875,0.36834716796875,-0.2939453125,-0.8720703125,0.5302734375,4.75,5.6875,-3.8125
2.085,-30.0,51.0,23.0,-38.0,2.0,-1.0,-30.0,12.0,-0.3446044921875,-0.37738037109375,0.77679443359375,0.36798095703125,-0.28857421875,-0.87060546875,0.451171875,-3.25,0.4375,0.0625
2.09,-7.0,-29.0,-35.0,32.0,14.0,-1.0,-2.0,-16.0,-0.34503173828125,-0.3775634765625,0.7767333984375,0.3675537109375,-0.2724609375,-0.82080078125,0.51806640625,-0.3125,2.6875,-2.25
2.095,-13.0,-10.0,-52.0,84.0,33.0,12.0,13.0,-12.0
2.1,3.0,-40.0,-105.0,-86.0,-42.0,-11.0,-4.0,-4.0,-0.34515380859375,-0.37689208984375,0.7767333984375,0.36810302734375,-0.28271484375,-0.83251953125,0.48974609375,2.4375,2.5625,-2.25
2.105,-11.0,22.0,23.0,-30.0,-21.0,-3.0,-9.0,-7.0,-0.34625244140625,-0.37799072265625,0.7763671875,0.36676025390625,-0.306640625,-0.9013671875,0.4794921875,-1.375,-2.1875,1.1875
2.11,0.0,-32.0,-33.0,-10.0,-1.0,1.0,2.0,4.0,-0.345703125,-0.3763427734375,0.77691650390625,0.36767578125,-0.2666015625,-0.845703125,0.51513671875,9.4375,2.1875,-1.25
2.115,18.0,29.0,49.0,28.0,12.0,9.0,13.0,5.0,-0.34625244140625,-0.37591552734375,0.7767333984375,0.3680419921875,-0.2890625,-0.82861328125,0.49853515625,-0.4375,4.1875,-1.8125
2.12,1.0,12.0,25.0,3.0,9.0,5.0,7.0,-4.0,-0.34661865234375,-0.37493896484375,0.7774658203125,0.3671875,-0.3056640625,-0.86376953125,0.48046875,3.875,-1.125,6.125
2.125,2.0,15.0,-1.0,-41.0,-16.0,23.0,21.0,-3.0,-0.34747314453125,-0.37640380859375,0.77789306640625,0.3638916015625,-0.33642578125,-0.92041015625,0.4404296875,-9.0625,-10.25,12.0
2.13,-3.0,7.0,21.0,6.0,-6.0,-7.0,2.0,-5.0,-0.34356689453125,-0.3707275390625,0.781982421875,0.36468505859375,-0.25927734375,-0.7490234375,0.51708984375,28.6875,-2.6875,-9.5625
2.135,-16.0,1.0,9.0,51.0,31.0,3.0,6.0,7.0
2.14,8.0,-3.0,11.0,4.0,-5.0,-5.0,0.0,6.0,-0.3416748046875,-0.36834716796875,0.78271484375,0.3673095703125,-0.27685546875,-0.91650390625,0.5380859375,21.9375,1.125,-8.6875
2.145,-2.0,-16.0,5.0,-24.0,-26.0,-11.0,-6.0,-1.0,-0.34136962890625,-0.3662109375,0.78424072265625,0.36651611328125,-0.294921875,-0.86083984375,0.51220703125,12.1875,-2.25,9.5625
2.15,3.0,-17.0,-11.0,0.0,1.0,-7.0,-10.0,-7.0,-0.342529296875,-0.36761474609375,0.7841796875,0.36407470703125,-0.31689453125,-0.84765625,0.4501953125,-10.375,-5.25,8.1875
2.155,5.0,0.0,4.0,6.0,11.0,32.0,10.0,11.0,-0.34307861328125,-0.371337890625,0.7843017578125,0.3594970703125,-0.3271484375,-0.9599609375,0.419921875,-18.1875,-18.3125,13.5625
2.16,-4.0,-5.0,-6.0,0.0,1.0,-15.0,-13.0,-11.0,-0.3414306640625,-0.37176513671875,0.78607177734375,0.3568115234375,-0.25146484375,-0.9248046875,0.494140625,3.1875,-16.9375,14.3125
2.165,4.0,17.0,11.0,0.0,-15.0,-10.0,-4.0,-2.0,-0.33905029296875,-0.36920166015625,0.7879638671875,0.3575439453125,-0.21875,-0.7861328125,0.52880859375,18.5625,-5.0,2.875
2.17,0.0,-16.0,-26.0,-52.0,-21.0,-13.0,-8.0,4.0,-0.3369140625,-0.366943359375,0.7890625,0.3594970703125,-0.2578125,-0.76611328125,0.56298828125,15.25,-1.8125,-7.0625
2.175,-6.0,-17.0,-8.0,6.0,4.0,-8.0,-6.0,-13.0,-0.33538818359375,-0.36968994140625,0.78826904296875,0.3597412109375,-0.2138671875,-0.83984375,0.52001953125,-16.875,-5.0,-3.25
2.18,2.0,30.0,34.0,19.0,0.0,-8.0,-1.0,-2.0,-0.334716796875,-0.37255859375,0.78753662109375,0.35906982421875,-0.21435546875,-0.88916015625,0.51904296875,-13.75,-6.8125,-1.75
2.185,1.0,7.0,26.0,12.0,-3.0,-2.0,2.0,6.0,-0.3338623046875,-0.373779296875,0.78741455078125,0.35888671875,-0.2314453125,-0.89306640625,0.5400390625,-4.3125,-4.9375,-1.0625
2.19,11.0,-13.0,-3.0,22.0,2.0,4.0,-1.0,-14.0,-0.33184814453125,-0.37255859375,0.78814697265625,0.3603515625,-0.251953125,-0.80859375,0.48291015625,14.25,-4.9375,-7.125
2.195,18.0,10.0,9.0,3.0,7.0,3.0,2.0,0.0,-0.32916259765625,-0.37127685546875,0.788818359375,0.36273193359375,-0.2158203125,-0.8076171875,0.52978515625,15.375,-4.0625,-10.9375
2.2,-8.0,11.0,11.0,-2.0,1.0,-3.0,-2.0,-1.0,-0.328125,-0.37255859375,0.78839111328125,0.36322021484375,-0.224609375,-0.80712890625,0.47802734375,-2.5,-5.375,-6.9375
2.205,5.0,-25.0,-12.0,-5.0,-8.0,0.0,-2.0,0.0,-0.3265380859375,-0.3739013671875,0.78857421875,0.3629150390625,-0.23095703125,-0.849609375,0.505859375,-2.1875,-10.8125,-2.875
2.21,2.0,5.0,6.0,8.0,6.0,4.0,1.0,3.0,-0.324951171875,-0.3748779296875,0.7886962890625,0.36309814453125,-0.2158203125,-0.8388671875,0.50146484375,0.0625,-8.125,-4.25
2.215,-25.0,5.0,21.0,-2.0,6.0,1.0,-3.0,-4.0,-0.32318115234375,-0.37548828125,0.78851318359375,0.36444091796875,-0.20751953125,-0.8359375,0.521484375,2.75,-4.8125,-9.75
2.22,6.0,-1.0,-2.0,9.0,1.0,-2.0,0.0,-7.0,-0.32177734375,-0.37640380859375,0.78790283203125,0.365966796875,-0.20166015625,-0.85546875,0.53564453125,-0.3125,-2.125,-10.6875
2.225,-3.0,8.0,29.0,-23.0,-7.0,-8.0,3.0,-10.0,-0.3209228515625,-0.37799072265625,0.787353515625,0.3663330078125,-0.2275390625,-0.86962890625,0.49365234375,-3.625,-5.6875,-7.0
2.23,5.0,-5.0,-39.0,-5.0,-1.0,-4.0,0.0,-5.0,-0.31890869140625,-0.3804931640625,0.78704833984375,0.3660888671875,-0.2060546875,-0.8720703125,0.5322265625,-1.1875,-6.625,-2.0625
2.235,-3.0,-1.0,-1.0,4.0,-2.0,-1.0,0.0,3.0
2.24,3.0,-20.0,-3.0,-2.0,-3.0,-1.0,-1.0,1.0,-0.3177490234375,-0.38079833984375,0.78692626953125,0.36712646484375,-0.20458984375,-0.84326171875,0.53662109375,1.25,-2.4375,-6.8125
2.245,6.0,15.0,-2.0,4.0,-4.0,-8.0,-7.0,10.0,-0.31689453125,-0.3814697265625,0.78656005859375,0.36785888671875,-0.2294921875,-0.8603515625,0.51904296875,-5.6875,-1.4375,-1.3125
2.25,4.0,-8.0,-18.0,-7.0,-3.0,1.0,4.0,4.0,-0.316650390625,-0.3831787109375,0.78619384765625,0.3670654296875,-0.22119140625,-0.890625,0.53125,-8.8125,-5.375,-0.1875
2.255,3.0,12.0,-9.0,-11.0,-5.0,-7.0,2.0,-1.0,-0.31597900390625,-0.383544921875,0.78631591796875,0.36700439453125,-0.2109375,-0.86572265625,0.541015625,-1.25,-3.875,-0.875
2.26,11.0,-3.0,12.0,12.0,-4.0,0.0,-1.0,-4.0,-0.3154296875,-0.38360595703125,0.7862548828125,0.36761474609375,-0.2138671875,-0.841796875,0.5341796875,0.4375,-0.625,-4.125
2.265,-1.0,23.0,51.0,28.0,3.0,-2.0,-5.0,-2.0,-0.31512451171875,-0.38360595703125,0.78607177734375,0.36822509765625,-0.220703125,-0.8466796875,0.53564453125,0.0625,0.5,-4.3125
2.27,0.0,-11.0,-2.0,-11.0,-1.0,-4.0,-3.0,0.0,-0.31536865234375,-0.38446044921875,0.78558349609375,0.3681640625,-0.22216796875,-0.85107421875,0.50390625,-5.125,-0.1875,-1.875
2.275,3.0,-9.0,-16.0,-5.0,2.0,7.0,-1.0,0.0,-0.3154296875,-0.3858642578125,0.78515625,0.36767578125,-0.21142578125,-0.88525390625,0.51806640625,-7.375,-2.8125,-0.625
2.28,-29.0,-4.0,22.0,10.0,2.0,-4.0,-1.0,-2.0,-0.31536865234375,-0.38580322265625,0.78515625,0.36773681640625,-0.203125,-0.8671875,0.53466796875,0.9375,-0.25,-0.6875
2.285,-11.0,7.0,11.0,23.0,4.0,0.0,2.0,2.0,-0.31549072265625,-0.38446044921875,0.78509521484375,0.369140625,-0.22705078125,-0.8251953125,0.52587890625,0.375,4.1875,-2.5
2.29,-5.0,-14.0,-15.0,-9.0,-2.0,1.0,-1.0,-3.0
2.295,-24.0,-4.0,-45.0,-42.0,-7.0,1.0,-2.0,-7.0,-0.31634521484375,-0.3856201171875,0.784423828125,0.36859130859375,-0.2314453125,-0.85400390625,0.509765625,-9.8125,0.875,-0.1875
2.3,11.0,-13.0,-4.0,9.0,1.0,-4.0,-4.0,-1.0,-0.3167724609375,-0.387451171875,0.78387451171875,0.3675537109375,-0.2197265625,-0.90283203125,0.5078125,-10.375,-3.625,1.5625
2.305,7.0,0.0,-6.0,-9.0,-7.0,-3.0,4.0,10.0,-0.316162109375,-0.38720703125,0.78411865234375,0.36773681640625,-0.19775390625,-0.8984375,0.52880859375,3.5,-1.375,0.6875
2.31,-12.0,-18.0,-2.0,-4.0,-5.0,-4.0,-3.0,-3.0,-0.3154296875,-0.3861083984375,0.78448486328125,0.3687744140625,-0.2041015625,-0.85498046875,0.53125,8.125,1.5,-3.125
2.315,17.0,14.0,19.0,-13.0,-1.0,-2.0,-1.0,-9.0,-0.31549072265625,-0.38525390625,0.7845458984375,0.36944580078125,-0.2255859375,-0.841796875,0.525390625,3.75,2.9375,-1.875
2.32,0.0,-22.0,-2.0,-6.0,-10.0,-6.0,-4.0,-2.0,-0.31585693359375,-0.3853759765625,0.7845458984375,0.3690185546875,-0.23095703125,-0.8388671875,0.51025390625,-2.5,-0.0625,1.125
2.325,-10.0,-24.0,8.0,12.0,2.0,-5.0,11.0,0.0,-0.31640625,-0.3863525390625,0.78424072265625,0.3681640625,-0.232421875,-0.89453125,0.51171875,-6.4375,-1.625,2.1875
2.33,-2.0,-3.0,1.0,-7.0,-5.0,1.0,0.0,0.0,-0.31634521484375,-0.38604736328125,0.78448486328125,0.36810302734375,-0.208984375,-0.8779296875,0.5244140625,1.9375,0.25,2.125
2.335,-10.0,8.0,-1.0,25.0,0.0,-4.0,-3.0,2.0,-0.31634521484375,-0.38385009765625,0.78521728515625,0.36871337890625,-0.2265625,-0.8388671875,0.53515625,3.375,3.1875,1.3125
2.34,-8.0,12.0,33.0,-7.0,2.0,1.0,-5.0,-6.0
2.345,-2.0,2.0,14.0,-6.0,-4.0,1.0,0.0,-2.0,-0.31683349609375,-0.38372802734375,0.78521728515625,0.36846923828125,-0.23828125,-0.8466796875,0.52783203125,-1.8125,1.1875,1.25
2.35,-6.0,-5.0,-12.0,-5.0,-4.0,5.0,4.0,4.0,-0.3172607421875,-0.38433837890625,0.78515625,0.3675537109375,-0.2001953125,-0.876953125,0.52880859375,-1.125,-0.125,2.25
2.355,7.0,20.0,1.0,-10.0,10.0,14.0,2.0,-8.0
2.36,-3.0,15.0,2.0,11.0,-1.0,-8.0,-4.0,0.0,-0.3172607421875,-0.3837890625,0.7852783203125,0.367919921875,-0.2041015625,-0.87109375,0.53271484375,2.8125,2.5,0.5625
2.365,6.0,16.0,14.0,23.0,9.0,5.0,4.0,12.0,-0.3179931640625,-0.38226318359375,0.78558349609375,0.36822509765625,-0.2314453125,-0.83984375,0.51318359375,0.0625,3.125,3.3125
2.37,-4.0,-6.0,-6.0,6.0,1.0,1.0,4.0,0.0,-0.3189697265625,-0.3826904296875,0.78533935546875,0.367431640625,-0.2314453125,-0.87353515625,0.5224609375,-5.5625,2.0,4.25
2.375,-28.0,-10.0,18.0,5.0,-2.0,-6.0,-4.0,-7.0,-0.31951904296875,-0.38250732421875,0.78521728515625,0.367431640625,-0.22314453125,-0.85791015625,0.5029296875,0.1875,2.75,1.5
2.38,12.0,8.0,7.0,9.0,3.0,1.0,-1.0,-4.0,-0.31982421875,-0.38250732421875,0.78515625,0.36724853515625,-0.2099609375,-0.89697265625,0.5185546875,0.125,1.9375,2.9375
2.385,8.0,-8.0,6.0,-2.0,-6.0,-1.0,-1.0,-3.0,-0.32098388671875,-0.37994384765625,0.78570556640625,0.3677978515625,-0.234375,-0.826171875,0.51220703125,5.6875,5.5625,2.4375
2.39,-9.0,18.0,-28.0,-5.0,-3.0,-4.0,0.0,7.0,-0.32220458984375,-0.37982177734375,0.78546142578125,0.36737060546875,-0.24658203125,-0.8359375,0.49560546875,-2.9375,4.375,3.0625
2.395,5.0,5.0,18.0,14.0,-3.0,-9.0,-5.0,-1.0,-0.3232421875,-0.380126953125,0.78515625,0.3668212890625,-0.22900390625,-0.8662109375,0.49560546875,-4.0,3.3125,4.0625
2.4,-3.0,-18.0,-10.0,-4.0,-2.0,-3.0,-6.0,-9.0,-0.32354736328125,-0.379638671875,0.78521728515625,0.3668212890625,-0.2177734375,-0.87060546875,0.51611328125,2.375,3.0625,3.0625
2.405,0.0,6.0,42.0,1.0,-8.0,2.0,1.0,2.0,-0.32391357421875,-0.37860107421875,0.7852783203125,0.367431640625,-0.22119140625,-0.84716796875,0.5205078125,4.5625,5.4375,0.875
2.41,12.0,4.0,-15.0,7.0,6.0,2.0,-1.0,8.0,-0.3265380859375,-0.37872314453125,0.784423828125,0.36688232421875,-0.2470703125,-0.888671875,0.49853515625,-5.5,4.75,3.8125
2.415,-15.0,27.0,-17.0,-32.0,-4.0,0.0,4.0,7.0,-0.32745361328125,-0.37896728515625,0.78411865234375,0.36639404296875,-0.2333984375,-0.86328125,0.49755859375,-3.3125,3.3125,3.5
2.42,10.0,41.0,17.0,28.0,11.0,2.0,2.0,1.0
2.425,4.0,-47.0,-17.0,-2.0,2.0,1.0,-3.0,-8.0,-0.328125,-0.37841796875,0.7840576171875,0.36651611328125,-0.22900390625,-0.86474609375,0.5234375,0.5625,4.9375,2.6875
2.43,-6.0,-4.0,-18.0,7.0,2.0,-1.0,0.0,-2.0,-0.32879638671875,-0.37628173828125,0.7843017578125,0.36761474609375,-0.251953125,-0.82275390625,0.52099609375,1.1875,4.0,0.9375
2.435,10.0,-27.0,-12.0,17.0,3.0,0.0,0.0,-6.0
2.44,2.0,-5.0,-21.0,11.0,-17.0,-8.0,-5.0,-3.0,-0.329833984375,-0.377197265625,0.78369140625,0.3670654296875,-0.2373046875,-0.85888671875,0.50146484375,-7.875,3.0,2.3125
2.445,-14.0,12.0,24.0,1.0,2.0,0.0,-4.0,-16.0,-0.33050537109375,-0.37640380859375,0.78375244140625,0.36712646484375,-0.24755859375,-0.84765625,0.4921875,5.75,3.625,1.25
2.45,8.0,22.0,27.0,-6.0,1.0,4.0,20.0,6.0
2.455,-7.0,3.0,-57.0,-19.0,28.0,10.0,-7.0,0.0,-0.330810546875,-0.37567138671875,0.78350830078125,0.36810302734375,-0.2275390625,-0.8154296875,0.54296875,0.875,6.9375,-2.375
2.46,18.0,-17.0,-48.0,-14.0,-18.0,-6.0,-9.0,0.0,-0.33203125,-0.37652587890625,0.782470703125,0.368408203125,-0.2314453125,-0.8486328125,0.505859375,-8.375,6.5,-1.625
2.465,21.0,22.0,5.0,-6.0,12.0,0.0,-18.0,8.0,-0.3333740234375,-0.3782958984375,0.781494140625,0.36749267578125,-0.2490234375,-0.9228515625,0.46630859375,-10.0625,1.8125,2.6875
2.47,13.0,7.0,41.0,107.0,85.0,20.0,2.0,4.0,-0.33343505859375,-0.37762451171875,0.7818603515625,0.36737060546875,-0.22802734375,-0.859375,0.50390625,3.5625,1.1875,3.875
2.475,-4.0,-31.0,45.0,14.0,-38.0,-14.0,-12.0,-2.0,-0.3336181640625,-0.37646484375,0.781982421875,0.3680419921875,-0.23876953125,-0.78662109375,0.51025390625,3.375,5.0,-0.4375
2.48,0.0,40.0,17.0,-56.0,-29.0,-8.0,30.0,-8.0,-0.33447265625,-0.3768310546875,0.781494140625,0.367919921875,-0.27734375,-0.849609375,0.47509765625,-2.8125,2.1875,-1.125
2.485,12.0,52.0,20.0,34.0,11.0,2.0,15.0,-12.0,-0.3350830078125,-0.37823486328125,0.78082275390625,0.36737060546875,-0.23095703125,-0.89208984375,0.482421875,-7.875,0.25,1.5
2.49,0.0,5.0,21.0,30.0,14.0,0.0,4.0,-7.0,-0.3338623046875,-0.37542724609375,0.7818603515625,0.36920166015625,-0.25048828125,-0.779296875,0.564453125,13.125,3.3125,-2.3125
2.495,-13.0,-5.0,-15.0,56.0,12.0,0.0,8.0,-11.0
2.5,9.0,-8.0,25.0,4.0,8.0,-1.0,-20.0,16.0,-0.33416748046875,-0.3756103515625,0.78155517578125,0.36932373046875,-0.2294921875,-0.822265625,0.490234375,-2.0625,2.375,-0.3125
2.505,1.0,-35.0,-3.0,84.0,16.0,3.0,4.0,11.0,-0.3360595703125,-0.38092041015625,0.77899169921875,0.36761474609375,-0.2255859375,-0.93408203125,0.47314453125,-16.25,-2.125,-3.4375
2.51,24.0,3.0,4.0,-67.0,-31.0,-9.0,-15.0,6.0
2.515,22.0,-20.0,62.0,19.0,-5.0,5.0,18.0,-4.0,-0.33428955078125,-0.37890625,0.7802734375,0.36859130859375,-0.21875,-0.9248046875,0.5224609375,18.25,-2.6875,1.375
2.52,-8.0,40.0,84.0,25.0,-10.0,-6.0,8.0,5.0,-0.33489990234375,-0.37548828125,0.78070068359375,0.37054443359375,-0.267578125,-0.76513671875,0.50439453125,-20.375,8.625,-5.0
2.525,9.0,-26.0,10.0,59.0,6.0,9.0,-4.0,12.0
2.53,-1.0,-37.0,-70.0,-35.0,-12.0,7.0,31.0,13.0,-0.3370361328125,-0.37860107421875,0.7791748046875,0.3687744140625,-0.3017578125,-0.91552734375,0.48876953125,-22.875,0.0625,1.1875
2.535,-9.0,3.0,-12.0,-10.0,0.0,-2.0,5.0,0.0,-0.336669921875,-0.3800048828125,0.7791748046875,0.3675537109375,-0.1962890625,-0.9443359375,0.455078125,-2.5,-6.0625,6.8125
2.54,-4.0,43.0,89.0,62.0,24.0,0.0,1.0,-10.0,-0.3358154296875,-0.3751220703125,0.780517578125,0.37054443359375,-0.26318359375,-0.783203125,0.4970703125,7.0,9.25,-2.1875
2.545,-25.0,-47.0,15.0,42.0,4.0,-13.0,-9.0,-6.0
2.55,9.0,34.0,-67.0,-59.0,1.0,-3.0,2.0,-3.0,-0.3377685546875,-0.37701416015625,0.77923583984375,0.3695068359375,-0.2958984375,-0.82763671875,0.498046875,-18.1875,3.125,-0.5
2.555,8.0,-3.0,-47.0,-27.0,-5.0,5.0,30.0,0.0,-0.337646484375,-0.37713623046875,0.7796630859375,0.36859130859375,-0.2529296875,-0.84423828125,0.505859375,11.75,0.125,2.25
2.56,0.0,-6.0,35.0,-8.0,5.0,-2.0,-5.0,4.0,-0.33709716796875,-0.37506103515625,0.78021240234375,0.37005615234375,-0.2578125,-0.806640625,0.53076171875,11.0,4.6875,-3.625
2.565,-14.0,-59.0,-88.0,-37.0,-8.0,6.0,-4.0,-10.0,-0.3385009765625,-0.3763427734375,0.779296875,0.36944580078125,-0.25830078125,-0.84765625,0.4580078125,-9.5,3.0625,1.0
2.57,7.0,-13.0,-23.0,14.0,14.0,6.0,-11.0,-4.0,-0.33929443359375,-0.37860107421875,0.77886962890625,0.3671875,-0.279296875,-0.93798828125,0.455078125,-12.3125,-6.6875,6.625
2.575,-10.0,-3.0,24.0,-9.0,-16.0,-11.0,-79.0,23.0,-0.33807373046875,-0.3768310546875,0.7801513671875,0.367431640625,-0.22412109375,-0.8505859375,0.533203125,11.625,-2.125,4.0
2.58,-23.0,-15.0,68.0,24.0,24.0,-3.0,-13.0,-10.0,-0.338134765625,-0.3739013671875,0.7806396484375,0.36932373046875,-0.26904296875,-0.7724609375,0.533203125,12.875,9.625,-3.5
2.585,-2.0,-21.0,-13.0,-29.0,-41.0,-13.0,9.0,-14.0,-0.34039306640625,-0.375732421875,0.7791748046875,0.3685302734375,-0.30712890625,-0.84326171875,0.4658203125,-16.4375,5.375,-1.4375
2.59,19.0,32.0,28.0,8.0,6.0,-1.0,29.0,7.0,-0.3411865234375,-0.37774658203125,0.77899169921875,0.3660888671875,-0.28466796875,-0.9384765625,0.4580078125,-11.0,-7.0625,8.375
2.595,-1.0,-13.0,-64.0,-60.0,-14.0,-3.0,4.0,-6.0,-0.340576171875,-0.37640380859375,0.7801513671875,0.36553955078125,-0.2646484375,-0.8720703125,0.529296875,7.5,-2.75,6.3125
2.6,-17.0,-29.0,39.0,-79.0,-70.0,-8.0,-14.0,-3.0,-0.33984375,-0.373046875,0.78106689453125,0.36773681640625,-0.2861328125,-0.77490234375,0.55322265625,17.0,6.5625,-5.6875
2.605,16.0,-8.0,33.0,36.0,-1.0,1.0,8.0,-1.0,-0.34295654296875,-0.3763427734375,0.77923583984375,0.365478515625,-0.29541015625,-0.89892578125,0.47314453125,-15.4375,-2.625,4.5625
2.61,-11.0,-20.0,75.0,69.0,12.0,4.0,-18.0,-17.0,-0.34320068359375,-0.37646484375,0.77947998046875,0.364501953125,-0.2744140625,-0.892578125,0.49609375,-1.4375,-2.0,5.1875
2.615,46.0,12.0,64.0,7.0,30.0,6.0,8.0,15.0,-0.3428955078125,-0.37347412109375,0.7801513671875,0.36651611328125,-0.28564453125,-0.80517578125,0.5302734375,15.6875,7.875,-4.3125
2.62,15.0,17.0,18.0,46.0,22.0,6.0,8.0,6.0,-0.34490966796875,-0.37451171875,0.7786865234375,0.36663818359375,-0.271484375,-0.8388671875,0.484375,-8.5625,2.8125,2.75
2.625,-12.0,26.0,-34.0,-24.0,-9.0,-1.0,-5.0,0.0
2.63,-16.0,10.0,-3.0,49.0,36.0,10.0,-9.0,5.0,-0.3455810546875,-0.3748779296875,0.7783203125,0.3663330078125,-0.2822265625,-0.8798828125,0.49365234375,-4.0,1.9375,1.125
2.635,1.0,2.0,-9.0,26.0,25.0,4.0,5.0,18.0,-0.34527587890625,-0.37054443359375,0.78070068359375,0.36590576171875,-0.27099609375,-0.77978515625,0.50537109375,16.875,1.1875,7.4375
2.64,9.0,10.0,22.0,-5.0,-16.0,-4.0,-10.0,-10.0,-0.3450927734375,-0.3681640625,0.781982421875,0.3658447265625,-0.283203125,-0.76806640625,0.4736328125,12.3125,0.6875,5.3125
2.645,8.0,20.0,-12.0,12.0,1.0,3.0,1.0,-8.0
2.65,-8.0,-10.0,14.0,3.0,-5.0,4.0,2.0,5.0,-0.34600830078125,-0.369873046875,0.78143310546875,0.3643798828125,-0.31787109375,-0.875,0.47119140625,-11.0,-3.375,2.125
2.655,34.0,-6.0,-52.0,-23.0,-5.0,12.0,17.0,4.0,-0.34649658203125,-0.37249755859375,0.7813720703125,0.3614501953125,-0.30712890625,-0.978515625,0.44775390625,-11.6875,-11.375,9.6875
2.66,14.0,29.0,-36.0,-25.0,-8.0,8.0,9.0,5.0,-0.3465576171875,-0.37457275390625,0.781982421875,0.35784912109375,-0.3017578125,-0.951171875,0.4462890625,-9.5625,-14.625,13.8125
2.665,-10.0,6.0,16.0,16.0,12.0,-6.0,-2.0,0.0,-0.343994140625,-0.3719482421875,0.78485107421875,0.3568115234375,-0.3134765625,-0.8525390625,0.51416015625,20.0625,-14.6875,8.375
2.67,-1.0,-16.0,10.0,-20.0,-11.0,-2.0,-2.0,-3.0,-0.34039306640625,-0.36761474609375,0.78680419921875,0.36041259765625,-0.23095703125,-0.76806640625,0.515625,35.25,-1.8125,-10.1875
2.675,6.0,7.0,-7.0,2.0,3.0,3.0,2.0,1.0,-0.33868408203125,-0.3648681640625,0.7874755859375,0.3634033203125,-0.2451171875,-0.6962890625,0.50439453125,18.75,3.75,-11.3125
2.68,-9.0,-1.0,10.0,6.0,3.0,-10.0,-6.0,-1.0,-0.3414306640625,-0.37188720703125,0.78472900390625,0.35955810546875,-0.263671875,-0.8369140625,0.48876953125,-44.0625,-3.4375,4.8125
2.685,-1.0,5.0,-1.0,-16.0,-4.0,-4.0,-7.0,0.0
2.69,-40.0,-3.0,-13.0,-23.0,-18.0,-4.0,3.0,-16.0,-0.3428955078125,-0.3768310546875,0.7830810546875,0.3565673828125,-0.2744140625,-0.97314453125,0.51513671875,-32.125,-6.3125,5.5625
2.695,5.0,-2.0,-4.0,0.0,-1.0,-2.0,-1.0,4.0,-0.33905029296875,-0.37408447265625,0.78497314453125,0.35906982421875,-0.24462890625,-0.81005859375,0.48388671875,23.3125,-3.375,-7.6875
2.7,12.0,17.0,1.0,-9.0,1.0,2.0,1.0,14.0
2.705,2.0,8.0,-17.0,-31.0,-12.0,-2.0,-2.0,-3.0,-0.33685302734375,-0.37322998046875,0.7855224609375,0.36077880859375,-0.2333984375,-0.78759765625,0.48583984375,11.875,-4.875,-8.875
2.71,6.0,-4.0,-1.0,-7.0,-7.0,2.0,-4.0,-8.0,-0.3360595703125,-0.37506103515625,0.78509521484375,0.360595703125,-0.22265625,-0.81103515625,0.49462890625,-8.625,-5.8125,-3.6875
2.715,6.0,7.0,10.0,15.0,5.0,-3.0,0.0,-7.0,-0.33514404296875,-0.37799072265625,0.78448486328125,0.359619140625,-0.2255859375,-0.84716796875,0.50390625,-15.125,-9.875,-2.5625
2.72,-16.0,-10.0,4.0,5.0,1.0,-7.0,-7.0,-2.0,-0.3341064453125,-0.38031005859375,0.7841796875,0.35888671875,-0.22607421875,-0.87744140625,0.50146484375,-9.8125,-9.1875,-1.9375
2.725,-2.0,13.0,2.0,-33.0,-13.0,1.0,-2.0,-6.0,-0.33294677734375,-0.3817138671875,0.78387451171875,0.35906982421875,-0.205078125,-0.87646484375,0.51171875,-4.3125,-5.25,-3.3125
2.73,4.0,-11.0,-11.0,-17.0,3.0,-1.0,-2.0,1.0,-0.3319091796875,-0.383056640625,0.78338623046875,0.3597412109375,-0.21826171875,-0.8876953125,0.5185546875,-4.125,-3.8125,-6.5625
2.735,6.0,5.0,8.0,22.0,1.0,-5.0,-8.0,1.0,-0.33087158203125,-0.38330078125,0.78338623046875,0.36041259765625,-0.23583984375,-0.84716796875,0.47412109375,3.4375,-3.75,-5.25
2.74,-1.0,-1.0,-11.0,-1.0,-1.0,-6.0,-5.0,-2.0,-0.329833984375,-0.38433837890625,0.7833251953125,0.3603515625,-0.224609375,-0.86376953125,0.49169921875,-2.5625,-6.0,-3.125
2.745,5.0,-15.0,-33.0,9.0,-6.0,-5.0,1.0,4.0,-0.328857421875,-0.38531494140625,0.78314208984375,0.360595703125,-0.197265625,-0.85693359375,0.513671875,-3.25,-3.9375,-2.9375
2.75,-9.0,-20.0,-5.0,-19.0,-7.0,-3.0,-2.0,-3.0,-0.3280029296875,-0.38592529296875,0.78277587890625,0.36151123046875,-0.2060546875,-0.86572265625,0.51318359375,-0.625,-1.0625,-5.6875
2.755,-7.0,2.0,17.0,-6.0,-12.0,-1.0,3.0,-5.0,-0.327392578125,-0.3863525390625,0.782470703125,0.3623046875,-0.228515625,-0.85205078125,0.513671875,-1.375,-0.75,-6.1875
2.76,8.0,7.0,-4.0,13.0,1.0,5.0,0.0,-3.0,-0.32672119140625,-0.38726806640625,0.7821044921875,0.3626708984375,-0.2353515625,-0.85302734375,0.49658203125,-3.125,-3.25,-5.5
2.765,-13.0,6.0,14.0,10.0,7.0,-5.0,-3.0,-1.0,-0.326171875,-0.3890380859375,0.781494140625,0.36260986328125,-0.22021484375,-0.89013671875,0.5107421875,-8.4375,-4.5625,-4.4375
2.77,12.0,9.0,13.0,-11.0,-6.0,1.0,1.0,-10.0,-0.32550048828125,-0.39013671875,0.78094482421875,0.36322021484375,-0.20703125,-0.89404296875,0.5048828125,-3.125,-2.0625,-5.875
2.775,-13.0,-6.0,-5.0,14.0,-2.0,0.0,3.0,1.0,-0.3243408203125,-0.38983154296875,0.7808837890625,0.36468505859375,-0.21728515625,-0.8759765625,0.51025390625,5.75,-0.5,-7.75
2.78,2.0,-7.0,-1.0,-22.0,-10.0,2.0,0.0,8.0,-0.3232421875,-0.38922119140625,0.78094482421875,0.3662109375,-0.2294921875,-0.837890625,0.5234375,5.9375,-0.3125,-8.6875
2.785,12.0,-1.0,7.0,7.0,9.0,9.0,5.0,-6.0,-0.32220458984375,-0.3907470703125,0.7799072265625,0.36767578125,-0.21484375,-0.84521484375,0.49853515625,-8.875,-1.8125,-7.5625
2.79,-2.0,-2.0,-8.0,-14.0,-9.0,-1.0,-4.0,-6.0
2.795,-1.0,3.0,-1.0,3.0,0.0,-8.0,-9.0,-5.0,-0.3223876953125,-0.39300537109375,0.77874755859375,0.3675537109375,-0.2060546875,-0.90576171875,0.4970703125,-12.125,-1.75,-4.6875
2.8,-2.0,0.0,9.0,-2.0,-4.0,-1.0,1.0,-2.0,-0.322509765625,-0.39404296875,0.77813720703125,0.36773681640625,-0.205078125,-0.91650390625,0.50439453125,-5.1875,0.8125,-2.1875
2.805,-5.0,1.0,-1.0,-14.0,-1.0,4.0,1.0,-2.0,-0.322021484375,-0.39337158203125,0.7777099609375,0.36968994140625,-0.216796875,-0.857421875,0.48486328125,3.0,2.0625,-4.6875
2.81,-10.0,-11.0,21.0,-8.0,-7.0,-8.0,-3.0,-1.0
2.815,0.0,5.0,-18.0,-47.0,-13.0,-7.0,-3.0,-1.0,-0.3221435546875,-0.393798828125,0.77728271484375,0.37005615234375,-0.2236328125,-0.869140625,0.482421875,-1.6875,0.625,-3.6875
2.82,6.0,15.0,19.0,21.0,4.0,-1.0,-1.0,-1.0,-0.32293701171875,-0.39556884765625,0.7760009765625,0.3702392578125,-0.21923828125,-0.90966796875,0.494140625,-3.0,0.6875,-1.0625
2.825,-6.0,-3.0,10.0,6.0,-3.0,-1.0,-1.0,4.0
2.83,-12.0,-5.0,16.0,3.0,0.0,0.0,2.0,-5.0,-0.32269287109375,-0.39501953125,0.77606201171875,0.37078857421875,-0.20703125,-0.8896484375,0.501953125,3.8125,1.4375,-1.25
2.835,-6.0,-16.0,-30.0,4.0,4.0,-1.0,-7.0,-9.0,-0.322509765625,-0.39434814453125,0.776123046875,0.37152099609375,-0.22998046875,-0.85107421875,0.49462890625,3.875,1.875,-3.8125
2.84,0.0,0.0,-4.0,14.0,9.0,4.0,1.0,0.0,-0.3226318359375,-0.39453125,0.7760009765625,0.37158203125,-0.23388671875,-0.87353515625,0.50146484375,-1.875,-0.1875,-1.9375
2.845,-1.0,1.0,-11.0,-12.0,-5.0,-4.0,3.0,2.0,-0.32257080078125,-0.395263671875,0.77569580078125,0.3714599609375,-0.208984375,-0.884765625,0.48828125,-3.5,-1.5625,-1.125
2.85,-15.0,3.0,-17.0,19.0,5.0,2.0,-2.0,-1.0,-0.3221435546875,-0.395263671875,0.7757568359375,0.37164306640625,-0.21044921875,-0.89013671875,0.50244140625,1.375,-1.4375,-1.375
2.855,-1.0,1.0,2.0,14.0,7.0,6.0,4.0,0.0,-0.32159423828125,-0.39459228515625,0.7760009765625,0.372314453125,-0.20751953125,-0.87646484375,0.5048828125,1.0,0.6875,-0.9375
2.86,-5.0,-9.0,-8.0,2.0,6.0,0.0,-5.0,-3.0,-0.3216552734375,-0.39459228515625,0.7760009765625,0.372314453125,-0.2177734375,-0.8720703125,0.4892578125,0.125,0.4375,0.375
2.865,12.0,2.0,0.0,-9.0,3.0,4.0,1.0,2.0,-0.3218994140625,-0.394775390625,0.77606201171875,0.371826171875,-0.22216796875,-0.8740234375,0.48388671875,-1.6875,-0.6875,1.8125
2.87,11.0,4.0,-1.0,-4.0,-4.0,-2.0,-1.0,2.0,-0.32208251953125,-0.39495849609375,0.7760009765625,0.37152099609375,-0.212890625,-0.89208984375,0.5126953125,-2.5,0.0,1.4375
2.875,-20.0,-8.0,4.0,8.0,2.0,0.0,0.0,2.0,-0.32183837890625,-0.3935546875,0.77630615234375,0.37261962890625,-0.2138671875,-0.88037109375,0.5126953125,4.1875,2.375,-0.1875
2.88,4.0,-30.0,-14.0,-31.0,-13.0,-8.0,-2.0,-2.0,-0.322021484375,-0.3927001953125,0.776611328125,0.3726806640625,-0.2255859375,-0.86181640625,0.4892578125,4.4375,2.0,1.375
2.885,-4.0,4.0,35.0,14.0,-1.0,3.0,-3.0,1.0
2.89,29.0,-18.0,19.0,36.0,5.0,-1.0,5.0,-6.0,-0.3216552734375,-0.3917236328125,0.77703857421875,0.37322998046875,-0.212890625,-0.84716796875,0.4990234375,5.875,0.6875,-0.9375
2.895,-3.0,-26.0,-60.0,-18.0,-7.0,-1.0,1.0,-1.0,-0.32177734375,-0.3919677734375,0.77685546875,0.3731689453125,-0.2119140625,-0.88330078125,0.50439453125,-1.5625,0.4375,0.0
2.9,11.0,0.0,7.0,-1.0,-4.0,0.0,-1.0,3.0,-0.322021484375,-0.39141845703125,0.77734375,0.3726806640625,-0.21435546875,-0.89794921875,0.50830078125,2.375,0.3125,5.0625
2.905,-11.0,4.0,15.0,-4.0,-2.0,-1.0,-4.0,-8.0,-0.32171630859375,-0.3897705078125,0.77801513671875,0.373046875,-0.20458984375,-0.88037109375,0.4921875,10.875,1.9375,2.9375
2.91,-8.0,-11.0,-15.0,-8.0,-7.0,-4.0,-4.0,2.0,-0.32159423828125,-0.3885498046875,0.77850341796875,0.37347412109375,-0.224609375,-0.84619140625,0.49658203125,7.1875,1.8125,0.125
2.915,16.0,-4.0,-1.0,6.0,-1.0,-2.0,3.0,12.0,-0.32244873046875,-0.3876953125,0.77838134765625,0.3739013671875,-0.21337890625,-0.84521484375,0.49609375,2.125,4.4375,-0.25
2.92,16.0,30.0,15.0,4.0,5.0,0.0,1.0,1.0,-0.3228759765625,-0.38787841796875,0.778076171875,0.3739013671875,-0.2216796875,-0.86279296875,0.49072265625,-1.6875,1.75,-0.5625
2.925,-2.0,-14.0,2.0,-19.0,-10.0,-6.0,-16.0,-1.0
2.93,-14.0,7.0,-47.0,-21.0,-7.0,-5.0,-6.0,-9.0,-0.32342529296875,-0.387939453125,0.77789306640625,0.37371826171875,-0.20458984375,-0.88623046875,0.51025390625,-2.125,2.875,2.5625
2.935,4.0,64.0,31.0,12.0,14.0,8.0,-2.0,6.0,-0.32330322265625,-0.38665771484375,0.7783203125,0.37445068359375,-0.19873046875,-0.8544921875,0.505859375,7.8125,3.625,0.8125
2.94,-1.0,8.0,40.0,29.0,8.0,1.0,7.0,14.0,-0.32354736328125,-0.38592529296875,0.7783203125,0.3748779296875,-0.21875,-0.86279296875,0.5087890625,3.1875,3.75,0.25
2.945,-2.0,-2.0,-22.0,35.0,22.0,3.0,3.0,-3.0,-0.32440185546875,-0.3858642578125,0.7781982421875,0.37457275390625,-0.21875,-0.86865234375,0.5078125,-2.5625,3.4375,3.0625
2.95,2.0,-31.0,-20.0,-3.0,-7.0,-2.0,5.0,2.0,-0.32568359375,-0.385009765625,0.7783203125,0.3740234375,-0.21875,-0.8642578125,0.5126953125,-1.75,3.8125,3.875
2.955,3.0,-21.0,17.0,2.0,-10.0,-4.0,-2.0,-19.0
2.96,-33.0,-9.0,0.0,-31.0,-5.0,-2.0,-4.0,-3.0,-0.32672119140625,-0.38458251953125,0.77813720703125,0.37396240234375,-0.234375,-0.884765625,0.5234375,1.625,3.1875,1.3125
2.965,9.0,-17.0,19.0,3.0,-1.0,-2.0,3.0,5.0,-0.3267822265625,-0.3836669921875,0.77850341796875,0.37408447265625,-0.23046875,-0.8515625,0.49609375,5.3125,1.375,1.6875
2.97,1.0,-8.0,-10.0,-40.0,-5.0,-2.0,-5.0,-2.0,-0.3271484375,-0.38372802734375,0.7783203125,0.37396240234375,-0.22509765625,-0.857421875,0.49658203125,-1.75,1.5625,0.8125
2.975,11.0,9.0,-18.0,24.0,18.0,6.0,9.0,17.0,-0.3277587890625,-0.38385009765625,0.778076171875,0.3739013671875,-0.220703125,-0.8623046875,0.5,-2.375,3.3125,1.25
2.98,-7.0,-28.0,30.0,56.0,20.0,0.0,-1.0,4.0,-0.32806396484375,-0.38262939453125,0.77825927734375,0.37457275390625,-0.22265625,-0.859375,0.49951171875,6.375,5.0,0.75
2.985,-10.0,7.0,28.0,-10.0,3.0,0.0,-1.0,-3.0,-0.3289794921875,-0.38275146484375,0.7774658203125,0.37518310546875,-0.2119140625,-0.8642578125,0.49267578125,-3.375,3.4375,-0.125
2.99,-5.0,5.0,42.0,2.0,-17.0,-9.0,1.0,1.0
2.995,6.0,21.0,70.0,17.0,1.0,1.0,11.0,8.0,-0.33050537109375,-0.3828125,0.77685546875,0.3751220703125,-0.2216796875,-0.8896484375,0.5205078125,-2.25,5.3125,0.8125
3.0,-28.0,2.0,-24.0,-47.0,-22.0,-5.0,-7.0,-41.0,-0.331298828125,-0.38214111328125,0.77642822265625,0.37591552734375,-0.21533203125,-0.849609375,0.51611328125,0.375,8.4375,-0.5
3.005,1.0,2.0,-44.0,64.0,50.0,12.0,-10.0,-4.0,-0.33245849609375,-0.38079833984375,0.77667236328125,0.375732421875,-0.22314453125,-0.84716796875,0.48974609375,-0.8125,3.125,5.3125
3.01,5.0,49.0,-15.0,-35.0,-18.0,-12.0,3.0,-10.0,-0.33349609375,-0.38153076171875,0.776123046875,0.375244140625,-0.23681640625,-0.84228515625,0.48779296875,-7.6875,2.8125,1.25
3.015,-1.0,-57.0,-76.0,-94.0,-30.0,-5.0,-28.0,-1.0,-0.33331298828125,-0.3814697265625,0.77642822265625,0.3748779296875,-0.19775390625,-0.87158203125,0.48095703125,6.0,-1.5,2.6875
3.02,9.0,24.0,-37.0,-50.0,-3.0,4.0,9.0,3.0
3.025,-17.0,-2.0,4.0,-34.0,-14.0,-6.0,4.0,4.0,-0.3333740234375,-0.38055419921875,0.77679443359375,0.375,-0.236328125,-0.830078125,0.48046875,4.9375,1.875,1.75
3.03,12.0,-19.0,17.0,15.0,12.0,6.0,3.0,-10.0,-0.33526611328125,-0.381103515625,0.77593994140625,0.37451171875,-0.2490234375,-0.8427734375,0.48876953125,-14.0625,2.375,-1.1875
3.035,11.0,-38.0,-77.0,-20.0,-11.0,-8.0,7.0,-8.0
3.04,-5.0,1.0,-1.0,-11.0,-12.0,-1.0,10.0,-10.0,-0.33544921875,-0.38201904296875,0.7755126953125,0.37432861328125,-0.2216796875,-0.90576171875,0.49365234375,-4.4375,0.0625,0.4375
3.045,-47.0,-10.0,0.0,-5.0,-5.0,3.0,-42.0,-33.0,-0.33551025390625,-0.3800048828125,0.7760009765625,0.37530517578125,-0.26611328125,-0.810546875,0.4697265625,5.75,1.5625,-0.9375
3.05,-2.0,-19.0,99.0,31.0,-10.0,-3.0,7.0,-16.0
3.055,-4.0,29.0,-15.0,14.0,10.0,-2.0,1.0,-1.0,-0.336181640625,-0.38092041015625,0.77532958984375,0.3751220703125,-0.2451171875,-0.85498046875,0.47705078125,-6.5625,1.125,-1.375
3.06,22.0,-8.0,20.0,-58.0,-36.0,-16.0,19.0,17.0,-0.33624267578125,-0.38275146484375,0.7744140625,0.3751220703125,-0.20654296875,-0.91015625,0.5068359375,-9.5625,-0.375,-2.4375
3.065,8.0,-10.0,64.0,16.0,-10.0,-5.0,-8.0,16.0,-0.33599853515625,-0.38189697265625,0.774658203125,0.37567138671875,-0.228515625,-0.853515625,0.50341796875,5.0,2.0625,-0.625
3.07,15.0,-7.0,52.0,25.0,5.0,7.0,4.0,6.0,-0.33624267578125,-0.38165283203125,0.7745361328125,0.3759765625,-0.2529296875,-0.81494140625,0.46875,0.5625,1.625,-2.1875
3.075,5.0,-16.0,15.0,-48.0,-3.0,-6.0,-9.0,-22.0,-0.3363037109375,-0.38262939453125,0.774169921875,0.3756103515625,-0.24951171875,-0.8818359375,0.486328125,-5.0625,-2.5625,-1.3125
3.08,-1.0,27.0,-67.0,6.0,-16.0,3.0,20.0,-1.0,-0.3360595703125,-0.3839111328125,0.7738037109375,0.375244140625,-0.20751953125,-0.88671875,0.47900390625,-5.4375,-3.0625,-0.1875
3.085,-4.0,-9.0,-77.0,-47.0,-24.0,6.0,9.0,2.0,-0.33477783203125,-0.38226318359375,0.7747802734375,0.37615966796875,-0.20556640625,-0.82568359375,0.55126953125,9.125,-0.125,-0.25
3.09,-9.0,-26.0,-63.0,5.0,10.0,-2.0,-5.0,-7.0,-0.3370361328125,-0.38311767578125,0.77325439453125,0.37640380859375,-0.2939453125,-0.83349609375,0.4775390625,-15.5,3.875,-3.0
3.095,-17.0,-2.0,-87.0,-71.0,-7.0,-14.0,-43.0,-1.0
3.1,17.0,33.0,15.0,46.0,72.0,17.0,38.0,4.0,-0.33599853515625,-0.38616943359375,0.7728271484375,0.3751220703125,-0.17626953125,-0.9228515625,0.5087890625,9.1875,-3.5,1.125
3.105,9.0,-14.0,43.0,83.0,10.0,-3.0,-21.0,7.0,-0.33514404296875,-0.3836669921875,0.77337646484375,0.37725830078125,-0.21484375,-0.78515625,0.51318359375,14.0,6.125,-5.6875
3.11,-15.0,-28.0,115.0,50.0,-2.0,-12.0,-18.0,-16.0
3.115,-24.0,-40.0,32.0,50.0,16.0,1.0,17.0,4.0,-0.337158203125,-0.3839111328125,0.77239990234375,0.377197265625,-0.29052734375,-0.80615234375,0.4638671875,-8.125,8.0625,-2.1875
3.12,-6.0,11.0,-32.0,-40.0,-35.0,-4.0,-14.0,-12.0,-0.33868408203125,-0.38916015625,0.7703857421875,0.3746337890625,-0.2197265625,-0.974609375,0.51416015625,-4.4375,-3.625,2.5625
3.125,-2.0,-70.0,-96.0,-128.0,-44.0,-4.0,35.0,1.0
3.13,26.0,55.0,55.0,48.0,28.0,9.0,-9.0,21.0,-0.33758544921875,-0.3857421875,0.771728515625,0.3763427734375,-0.2001953125,-0.8505859375,0.54052734375,19.6875,5.8125,1.3125
3.135,4.0,9.0,47.0,43.0,10.0,0.0,-12.0,1.0,-0.3411865234375,-0.38690185546875,0.76959228515625,0.37628173828125,-0.3037109375,-0.8837890625,0.46630859375,-18.1875,1.8125,-1.5
3.14,7.0,29.0,20.0,-10.0,-10.0,-10.0,15.0,24.0,-0.34100341796875,-0.3876953125,0.769775390625,0.375244140625,-0.1904296875,-0.9091796875,0.47998046875,-3.6875,-3.6875,6.5
3.145,15.0,-4.0,36.0,-11.0,-6.0,-6.0,-15.0,-12.0
3.15,3.0,31.0,11.0,-21.0,-1.0,-2.0,-2.0,2.0,-0.34063720703125,-0.38665771484375,0.77032470703125,0.37554931640625,-0.25732421875,-0.916015625,0.51171875,6.5,0.1875,0.375
3.155,2.0,0.0,-4.0,19.0,4.0,3.0,10.0,4.0,-0.34002685546875,-0.38433837890625,0.77117919921875,0.37677001953125,-0.240234375,-0.833984375,0.513671875,12.9375,3.8125,-0.8125
3.16,9.0,21.0,5.0,-33.0,-17.0,-4.0,-1.0,1.0,-0.3408203125,-0.3839111328125,0.7711181640625,0.37652587890625,-0.248046875,-0.853515625,0.48095703125,-0.8125,3.625,2.75
3.165,0.0,31.0,26.0,38.0,5.0,-17.0,2.0,-2.0,-0.34228515625,-0.3848876953125,0.77215576171875,0.37213134765625,-0.26171875,-0.953125,0.44970703125,-1.5625,-8.6875,13.8125
3.17,-5.0,9.0,10.0,11.0,0.0,-28.0,-27.0,-6.0,-0.3406982421875,-0.3809814453125,0.77490234375,0.37188720703125,-0.24072265625,-0.8798828125,0.5166015625,25.0625,-3.9375,11.6875
3.175,-3.0,-5.0,-77.0,-22.0,-13.0,-12.0,-16.0,-11.0,-0.340087890625,-0.37689208984375,0.7760009765625,0.37420654296875,-0.30712890625,-0.85546875,0.478515625,-5.5,2.5,-2.75
3.18,23.0,12.0,38.0,19.0,10.0,-3.0,4.0,-2.0
3.185,4.0,-6.0,14.0,5.0,9.0,13.0,6.0,-6.0,-0.34051513671875,-0.3790283203125,0.77630615234375,0.37109375,-0.27734375,-0.89501953125,0.43359375,-11.25,-12.0,10.5625
3.19,0.0,10.0,17.0,9.0,-1.0,3.0,5.0,5.0,-0.33697509765625,-0.37762451171875,0.7799072265625,0.3681640625,-0.2216796875,-0.865234375,0.5029296875,23.1875,-6.1875,6.5625
3.195,0.0,-16.0,2.0,11.0,14.0,5.0,-2.0,2.0
3.2,-4.0,-12.0,20.0,-16.0,-6.0,-6.0,-9.0,0.0,-0.33441162109375,-0.3736572265625,0.78167724609375,0.370849609375,-0.22216796875,-0.76611328125,0.56884765625,25.4375,1.625,-6.125
3.205,5.0,0.0,6.0,7.0,2.0,2.0,-3.0,9.0,-0.33355712890625,-0.3726806640625,0.7822265625,0.371337890625,-0.24755859375,-0.77099609375,0.50048828125,6.0,-2.0625,-2.1875
3.21,-11.0,17.0,-4.0,1.0,0.0,4.0,1.0,-11.0,-0.335205078125,-0.3779296875,0.78131103515625,0.366455078125,-0.2451171875,-0.87353515625,0.50634765625,-17.125,-5.375,5.625
3.215,19.0,14.0,34.0,67.0,44.0,9.0,5.0,9.0
3.22,-1.0,15.0,2.0,16.0,6.0,2.0,-10.0,1.0,-0.334716796875,-0.37890625,0.78131103515625,0.36602783203125,-0.22705078125,-0.89208984375,0.52294921875,-4.125,-4.125,1.125
3.225,-10.0,-4.0,-4.0,-3.0,-5.0,-3.0,-6.0,-2.0,-0.33233642578125,-0.3778076171875,0.78240966796875,0.366943359375,-0.23291015625,-0.85986328125,0.478515625,10.4375,-4.4375,-1.125
3.23,-15.0,1.0,3.0,-16.0,-8.0,3.0,-8.0,5.0
3.235,-9.0,0.0,1.0,-5.0,3.0,2.0,5.0,1.0,-0.3309326171875,-0.3790283203125,0.7830810546875,0.36553955078125,-0.216796875,-0.81982421875,0.5185546875,-6.5625,-5.1875,2.25
3.24,1.0,26.0,28.0,20.0,-1.0,-3.0,0.0,3.0,-0.33062744140625,-0.379638671875,0.78289794921875,0.365478515625,-0.24658203125,-0.8369140625,0.51025390625,-3.4375,-2.5,-2.4375
3.245,5.0,5.0,-17.0,-5.0,1.0,1.0,0.0,-4.0,-0.330322265625,-0.380859375,0.78228759765625,0.36578369140625,-0.2421875,-0.8740234375,0.50830078125,-5.4375,-2.0625,-5.3125
3.25,7.0,-6.0,6.0,15.0,10.0,0.0,1.0,7.0
3.255,17.0,11.0,0.0,6.0,3.0,14.0,19.0,-7.0,-0.329345703125,-0.38134765625,0.782470703125,0.3658447265625,-0.2353515625,-0.876953125,0.474609375,2.8125,-5.5625,-2.1875
3.26,-11.0,-3.0,-3.0,-29.0,-9.0,-3.0,1.0,-6.0,-0.32806396484375,-0.38134765625,0.7830810546875,0.36566162109375,-0.2265625,-0.8701171875,0.48828125,4.75,-7.1875,0.375
3.265,-11.0,2.0,-9.0,-18.0,-17.0,-7.0,-3.0,-1.0,-0.3267822265625,-0.381103515625,0.78363037109375,0.36590576171875,-0.2001953125,-0.8056640625,0.53076171875,2.625,-4.0625,-0.9375
3.27,-5.0,-21.0,1.0,4.0,-14.0,-7.0,-6.0,-10.0,-0.3262939453125,-0.38153076171875,0.78338623046875,0.3663330078125,-0.21875,-0.8076171875,0.52001953125,-3.0625,-0.9375,-4.0
3.275,19.0,9.0,-11.0,-6.0,7.0,1.0,-4.0,6.0,-0.32623291015625,-0.3826904296875,0.78302001953125,0.3660888671875,-0.26318359375,-0.83203125,0.5185546875,-8.0625,-3.25,-4.1875
3.28,-43.0,-10.0,3.0,-6.0,-7.0,-3.0,0.0,-12.0,-0.325927734375,-0.38427734375,0.78253173828125,0.36566162109375,-0.2412109375,-0.85986328125,0.478515625,-7.0625,-5.5625,-2.875
3.285,4.0,-23.0,22.0,24.0,6.0,-3.0,1.0,-1.0,-0.32415771484375,-0.3856201171875,0.7823486328125,0.3662109375,-0.2060546875,-0.88134765625,0.52294921875,4.4375,-1.375,-4.125
3.29,10.0,11.0,3.0,-3.0,12.0,5.0,1.0,2.0,-0.32330322265625,-0.38507080078125,0.7823486328125,0.3675537109375,-0.21484375,-0.8359375,0.5185546875,5.1875,1.0625,-6.5
3.295,13.0,1.0,3.0,-21.0,-10.0,-3.0,0.0,-1.0,-0.32342529296875,-0.38702392578125,0.781005859375,0.36822509765625,-0.2421875,-0.87158203125,0.49462890625,-5.625,-2.0625,-3.5
3.3,-34.0,-35.0,-25.0,-12.0,-1.0,-7.0,-8.0,2.0
3.305,-9.0,-8.0,-24.0,-8.0,-4.0,10.0,2.0,-4.0,-0.32318115234375,-0.38836669921875,0.78057861328125,0.367919921875,-0.2138671875,-0.88916015625,0.51220703125,-6.9375,-3.375,-1.5625
3.31,2.0,7.0,-14.0,4.0,-2.0,-8.0,2.0,0.0,-0.3218994140625,-0.38824462890625,0.78045654296875,0.369384765625,-0.2216796875,-0.849609375,0.51220703125,6.0625,0.8125,-6.0
3.315,-6.0,8.0,78.0,14.0,1.0,0.0,3.0,-3.0
3.32,-2.0,-25.0,-8.0,-6.0,-1.0,-1.0,-1.0,-2.0,-0.3216552734375,-0.38763427734375,0.78045654296875,0.3702392578125,-0.2392578125,-0.84912109375,0.513671875,3.625,1.5,-4.5
3.325,5.0,9.0,-10.0,1.0,-1.0,-9.0,-6.0,6.0,-0.32086181640625,-0.3890380859375,0.7799072265625,0.37066650390625,-0.2021484375,-0.880859375,0.49658203125,-2.25,-2.6875,-3.5
3.33,5.0,17.0,-9.0,-16.0,-14.0,-11.0,-10.0,-1.0,-0.3203125,-0.38922119140625,0.77947998046875,0.3719482421875,-0.19921875,-0.8427734375,0.51220703125,0.8125,1.6875,-3.6875
3.335,15.0,1.0,-37.0,-20.0,-6.0,-1.0,1.0,2.0,-0.32037353515625,-0.38934326171875,0.77911376953125,0.37249755859375,-0.21875,-0.869140625,0.50830078125,-0.875,1.8125,-3.375
3.34,6.0,5.0,3.0,4.0,1.0,-3.0,-2.0,3.0,-0.32061767578125,-0.3907470703125,0.7784423828125,0.37225341796875,-0.20556640625,-0.888671875,0.49609375,-1.3125,-1.4375,-0.375
3.345,-5.0,7.0,3.0,5.0,3.0,2.0,2.0,0.0
3.35,18.0,20.0,15.0,3.0,-1.0,0.0,-3.0,1.0,-0.3203125,-0.39044189453125,0.7786865234375,0.372314453125,-0.20458984375,-0.86865234375,0.51220703125,2.0,-0.5625,0.3125
3.355,13.0,-2.0,11.0,-2.0,-4.0,-1.0,3.0,0.0,-0.32012939453125,-0.3900146484375,0.77880859375,0.37261962890625,-0.2119140625,-0.8623046875,0.5166015625,1.8125,0.875,-0.625
3.36,14.0,10.0,19.0,18.0,12.0,3.0,1.0,9.0,-0.3204345703125,-0.39013671875,0.77862548828125,0.3726806640625,-0.21337890625,-0.86181640625,0.484375,-0.3125,1.25,-0.375
3.365,-5.0,-6.0,0.0,0.0,2.0,-4.0,-4.0,-3.0,-0.320556640625,-0.3902587890625,0.77850341796875,0.37255859375,-0.21533203125,-0.8642578125,0.49365234375,-1.125,-0.0625,0.1875
3.37,-3.0,-5.0,-9.0,-1.0,-7.0,-5.0,0.0,-5.0,-0.32073974609375,-0.390625,0.77838134765625,0.37237548828125,-0.20947265625,-0.86328125,0.5048828125,-3.1875,0.0,0.3125
3.375,6.0,8.0,7.0,-5.0,-4.0,-5.0,-7.0,-4.0,-0.3209228515625,-0.39093017578125,0.778076171875,0.37249755859375,-0.20751953125,-0.88134765625,0.50732421875,-2.1875,1.25,-0.8125
3.38,-8.0,19.0,8.0,-1.0,-2.0,-1.0,-2.0,-10.0
3.385,1.0,-2.0,1.0,2.0,2.0,-2.0,0.0,6.0,-0.32122802734375,-0.39093017578125,0.77777099609375,0.37286376953125,-0.20849609375,-0.87890625,0.5,-0.125,2.875,-1.0625
3.39,-10.0,-19.0,-6.0,4.0,0.0,-5.0,-4.0,-2.0,-0.3212890625,-0.39093017578125,0.77777099609375,0.37286376953125,-0.2216796875,-0.8798828125,0.49462890625,0.5625,-0.0625,0.8125
3.395,-6.0,-5.0,3.0,8.0,1.0,-1.0,-3.0,0.0,-0.32122802734375,-0.39056396484375,0.77777099609375,0.373291015625,-0.2060546875,-0.8701171875,0.4970703125,2.625,2.0,-1.0
3.4,-7.0,3.0,-16.0,-11.0,1.0,4.0,2.0,-5.0,-0.32086181640625,-0.39007568359375,0.7777099609375,0.3741455078125,-0.205078125,-0.8564453125,0.5048828125,3.8125,1.5,-3.4375
3.405,2.0,7.0,5.0,4.0,-4.0,-2.0,0.0,3.0,-0.3214111328125,-0.38995361328125,0.7774658203125,0.3743896484375,-0.21142578125,-0.8740234375,0.51953125,-1.75,3.875,-0.3125
3.41,9.0,-14.0,-21.0,-39.0,-17.0,-5.0,-2.0,-1.0,-0.3214111328125,-0.38995361328125,0.7774658203125,0.3743896484375,-0.22509765625,-0.8759765625,0.4970703125,-0.5625,0.625,0.8125
3.415,-59.0,15.0,2.0,9.0,3.0,1.0,-2.0,-14.0,-0.32196044921875,-0.3897705078125,0.77734375,0.37445068359375,-0.2177734375,-0.90478515625,0.5126953125,1.1875,1.5625,1.875
3.42,5.0,-24.0,-20.0,5.0,1.0,-7.0,-1.0,3.0
3.425,-9.0,-19.0,-18.0,-3.0,-4.0,-3.0,4.0,6.0,-0.3221435546875,-0.388427734375,0.7777099609375,0.374755859375,-0.20458984375,-0.8779296875,0.51708984375,6.5,4.3125,2.9375
3.43,15.0,-18.0,-15.0,4.0,2.0,0.0,3.0,3.0,-0.32281494140625,-0.386962890625,0.77789306640625,0.37542724609375,-0.2177734375,-0.8642578125,0.5029296875,-1.5,2.625,0.875
3.435,-14.0,-17.0,-26.0,17.0,-1.0,-4.0,-7.0,-12.0
3.44,1.0,-11.0,19.0,-2.0,-1.0,-6.0,0.0,7.0,-0.32354736328125,-0.38726806640625,0.7777099609375,0.37481689453125,-0.21630859375,-0.8857421875,0.49755859375,-3.6875,1.5,3.9375
3.445,-38.0,-15.0,-21.0,-9.0,-4.0,-2.0,1.0,-7.0,-0.323486328125,-0.38665771484375,0.7781982421875,0.37445068359375,-0.21923828125,-0.88525390625,0.50537109375,3.75,-0.6875,4.125
3.45,-21.0,-4.0,11.0,-11.0,-1.0,-3.0,-10.0,-9.0,-0.323486328125,-0.38531494140625,0.77862548828125,0.37493896484375,-0.1982421875,-0.8564453125,0.51123046875,7.25,4.125,2.25
3.455,-3.0,-19.0,-25.0,-18.0,-2.0,1.0,-4.0,1.0,-0.32415771484375,-0.38409423828125,0.778564453125,0.37579345703125,-0.2119140625,-0.8369140625,0.509765625,4.3125,8.0625,-0.1875
3.46,11.0,18.0,40.0,25.0,4.0,1.0,6.0,15.0,-0.324951171875,-0.383544921875,0.77850341796875,0.37579345703125,-0.22802734375,-0.83740234375,0.490234375,0.75,4.25,1.8125
3.465,3.0,-17.0,-1.0,10.0,14.0,6.0,3.0,3.0,-0.3258056640625,-0.3837890625,0.77838134765625,0.3751220703125,-0.22265625,-0.86865234375,0.48583984375,-3.1875,1.625,4.5625
3.47,8.0,7.0,-17.0,-32.0,4.0,-3.0,-8.0,5.0,-0.325927734375,-0.38323974609375,0.77862548828125,0.375,-0.20263671875,-0.88232421875,0.521484375,2.1875,1.9375,3.8125
3.475,16.0,23.0,23.0,-8.0,2.0,1.0,1.0,-3.0,-0.32623291015625,-0.38262939453125,0.778564453125,0.37548828125,-0.21728515625,-0.87548828125,0.517578125,2.625,4.625,0.1875
3.48,-19.0,-5.0,19.0,-22.0,-11.0,-1.0,-3.0,-14.0,-0.326171875,-0.38134765625,0.7789306640625,0.3759765625,-0.22265625,-0.83349609375,0.49560546875,7.3125,2.6875,0.8125
3.485,6.0,5.0,0.0,42.0,10.0,-1.0,-1.0,0.0,-0.3271484375,-0.38201904296875,0.7783203125,0.37579345703125,-0.20947265625,-0.86865234375,0.50048828125,-6.3125,4.1875,1.375
3.49,12.0,0.0,-2.0,53.0,16.0,1.0,7.0,-5.0,-0.32818603515625,-0.38165283203125,0.77813720703125,0.37554931640625,-0.2138671875,-0.87158203125,0.5166015625,3.25,3.8125,2.6875
3.495
3.5,-28.0,-15.0,-14.0,-7.0,-5.0,-2.0,-2.0,-2.0,-0.32855224609375,-0.38043212890625,0.77813720703125,0.3765869140625,-0.21875,-0.84130859375,0.517578125,5.3125,6.9375,-1.0
3.505,5.0,3.0,6.0,19.0,-6.0,1.0,1.0,7.0,-0.32928466796875,-0.37939453125,0.7779541015625,0.37738037109375,-0.244140625,-0.8427734375,0.505859375,3.75,7.0625,-1.375
3.51,-13.0,11.0,-21.0,-7.0,-15.0,-4.0,14.0,-11.0,-0.3306884765625,-0.38055419921875,0.77728271484375,0.3763427734375,-0.2314453125,-0.90966796875,0.4970703125,-4.8125,-0.4375,3.0
3.515,4.0,18.0,10.0,-102.0,-49.0,-12.0,-18.0,3.0,-0.330078125,-0.375244140625,0.7786865234375,0.37933349609375,-0.22705078125,-0.7822265625,0.55029296875,18.5,10.0,-0.8125
3.52,-24.0,-69.0,-16.0,-70.0,-11.0,-9.0,-14.0,-33.0,-0.33209228515625,-0.37542724609375,0.77783203125,0.379150390625,-0.28271484375,-0.81640625,0.4833984375,-7.1875,7.9375,-0.3125
3.525,11.0,7.0,-26.0,36.0,-24.0,-10.0,-12.0,4.0,-0.33404541015625,-0.37762451171875,0.77685546875,0.37725830078125,-0.24951171875,-0.85498046875,0.47021484375,-17.875,0.6875,5.5
3.53,2.0,52.0,33.0,-21.0,-16.0,-1.0,-26.0,10.0,-0.334716796875,-0.379150390625,0.77618408203125,0.37646484375,-0.20361328125,-0.91162109375,0.4765625,-8.1875,0.0,3.5
3.535,-8.0,-4.0,15.0,14.0,3.0,-5.0,-6.0,-1.0,-0.33441162109375,-0.37542724609375,0.77667236328125,0.37939453125,-0.21142578125,-0.8291015625,0.5224609375,12.0,9.6875,-0.8125
3.54,5.0,-5.0,20.0,62.0,52.0,14.0,7.0,0.0
3.545,4.0,26.0,26.0,-25.0,-28.0,-7.0,-1.0,8.0,-0.33551025390625,-0.3748779296875,0.7764892578125,0.37945556640625,-0.26416015625,-0.78857421875,0.4755859375,-0.8125,5.1875,0.25
3.55,-11.0,15.0,65.0,20.0,-3.0,-4.0,-6.0,4.0,-0.3372802734375,-0.3759765625,0.77593994140625,0.37786865234375,-0.2666015625,-0.86083984375,0.4912109375,-12.625,2.4375,6.125
3.555,-7.0,22.0,-5.0,-10.0,-9.0,2.0,-6.0,12.0,-0.338134765625,-0.3782958984375,0.77496337890625,0.37677001953125,-0.22412109375,-0.88134765625,0.4931640625,1.4375,0.5625,0.875
3.56,-4.0,-10.0,-22.0,11.0,36.0,7.0,2.0,-9.0
3.565,4.0,-1.0,-44.0,-79.0,-41.0,-7.0,8.0,8.0,-0.3377685546875,-0.37762451171875,0.7750244140625,0.37774658203125,-0.20751953125,-0.84716796875,0.505859375,4.625,3.0625,-1.6875
3.57,-15.0,-1.0,-34.0,19.0,-16.0,-5.0,-12.0,-7.0,-0.33758544921875,-0.37591552734375,0.77557373046875,0.37835693359375,-0.26171875,-0.8369140625,0.50439453125,9.5625,2.75,-0.0625
3.575,-46.0,8.0,-7.0,-34.0,-24.0,-8.0,-1.0,-29.0,-0.33807373046875,-0.375732421875,0.77557373046875,0.378173828125,-0.24560546875,-0.81396484375,0.48095703125,-1.0625,1.9375,1.375
3.58,-4.0,-4.0,-31.0,-16.0,13.0,3.0,3.0,2.0,-0.33868408203125,-0.37744140625,0.774658203125,0.3778076171875,-0.2578125,-0.86962890625,0.49462890625,-11.4375,-0.4375,-2.8125
3.585,14.0,-3.0,-46.0,-61.0,-29.0,-11.0,-5.0,10.0,-0.33837890625,-0.3778076171875,0.7745361328125,0.3779296875,-0.21923828125,-0.8857421875,0.51806640625,-1.25,-0.6875,-0.375
3.59,-8.0,-20.0,-31.0,79.0,39.0,14.0,1.0,-11.0,-0.33758544921875,-0.37628173828125,0.7750244140625,0.37908935546875,-0.232421875,-0.83740234375,0.5283203125,9.125,2.25,-2.75
3.595,3.0,-13.0,53.0,100.0,3.0,-5.0,17.0,10.0,-0.33782958984375,-0.3759765625,0.77484130859375,0.379638671875,-0.2607421875,-0.82275390625,0.49267578125,0.5625,2.625,-3.3125
3.6,3.0,8.0,44.0,76.0,7.0,-3.0,9.0,-7.0,-0.33856201171875,-0.377685546875,0.774169921875,0.37860107421875,-0.26025390625,-0.89306640625,0.47412109375,-10.25,-2.25,0.875
3.605,38.0,-8.0,22.0,-51.0,-8.0,10.0,14.0,26.0,-0.33843994140625,-0.37896728515625,0.77362060546875,0.3785400390625,-0.19873046875,-0.90087890625,0.4931640625,-5.1875,-1.125,-0.25
3.61,10.0,-4.0,-127.0,-115.0,-20.0,-6.0,-7.0,1.0,-0.33819580078125,-0.3773193359375,0.773681640625,0.3802490234375,-0.2353515625,-0.83447265625,0.55078125,7.25,7.1875,-5.0
3.615,-14.0,-20.0,57.0,3.0,-26.0,-4.0,-12.0,-15.0,-0.338623046875,-0.3768310546875,0.773193359375,0.38140869140625,-0.2734375,-0.81689453125,0.48486328125,1.6875,5.0,-6.75
3.62,3.0,-40.0,-64.0,-52.0,-25.0,-2.0,9.0,21.0,-0.33929443359375,-0.3780517578125,0.77276611328125,0.38043212890625,-0.26318359375,-0.875,0.46630859375,-7.6875,-2.0,1.375
3.625,-2.0,-18.0,-59.0,67.0,67.0,16.0,17.0,-2.0,-0.33929443359375,-0.379638671875,0.77215576171875,0.38018798828125,-0.21630859375,-0.90283203125,0.5068359375,-8.4375,-2.0,-1.4375
3.63,7.0,-21.0,-28.0,-32.0,-34.0,-9.0,-4.0,4.0,-0.3387451171875,-0.3779296875,0.7723388671875,0.3819580078125,-0.2099609375,-0.86474609375,0.5302734375,10.625,6.5625,-3.5
3.635,-1.0,8.0,-20.0,-81.0,-63.0,-19.0,3.0,1.0,-0.3406982421875,-0.3785400390625,0.7716064453125,0.381103515625,-0.26513671875,-0.873046875,0.466796875,-8.25,-1.75,5.5625
3.64,-8.0,54.0,24.0,10.0,-15.0,-1.0,-11.0,-9.0,-0.34088134765625,-0.379638671875,0.77130126953125,0.38043212890625,-0.22802734375,-0.908203125,0.49072265625,-5.9375,-2.1875,2.25
3.645,10.0,-87.0,-80.0,-52.0,-25.0,-6.0,-20.0,5.0,-0.340576171875,-0.37835693359375,0.77178955078125,0.38092041015625,-0.2412109375,-0.8798828125,0.51708984375,7.5,2.1875,0.9375
3.65,1.0,34.0,14.0,39.0,2.0,-2.0,2.0,14.0,-0.34014892578125,-0.37677001953125,0.77227783203125,0.3819580078125,-0.22509765625,-0.81787109375,0.4873046875,10.125,3.4375,-0.9375
3.655,-37.0,21.0,24.0,73.0,34.0,9.0,3.0,-3.0,-0.341796875,-0.3778076171875,0.77130126953125,0.38140869140625,-0.271484375,-0.82470703125,0.49609375,-13.0,4.625,-0.5
3.66,6.0,51.0,119.0,38.0,-9.0,-13.0,3.0,17.0
3.665,-8.0,-8.0,4.0,98.0,75.0,12.0,-6.0,-19.0,-0.3426513671875,-0.37933349609375,0.77044677734375,0.38092041015625,-0.23974609375,-0.89013671875,0.50341796875,-11.625,1.5625,-0.375
3.67,-5.0,-8.0,32.0,-65.0,-33.0,0.0,0.0,-24.0,-0.34228515625,-0.37884521484375,0.770751953125,0.381103515625,-0.25146484375,-0.89453125,0.47509765625,5.8125,-1.3125,0.5
3.675,12.0,25.0,40.0,60.0,-4.0,10.0,13.0,8.0,-0.3419189453125,-0.37823486328125,0.77105712890625,0.3814697265625,-0.23779296875,-0.83349609375,0.51171875,2.625,0.5625,-1.0625
3.68,12.0,0.0,31.0,13.0,-28.0,-9.0,-8.0,4.0,-0.3438720703125,-0.3804931640625,0.769287109375,0.3809814453125,-0.25439453125,-0.900390625,0.47509765625,-5.5,1.6875,0.0625
3.685,-1.0,17.0,-3.0,-13.0,-51.0,-18.0,-3.0,-6.0
3.69,-2.0,9.0,8.0,-16.0,10.0,-5.0,-8.0,-11.0,-0.34368896484375,-0.38018798828125,0.7694091796875,0.3812255859375,-0.2509765625,-0.90478515625,0.48876953125,3.5625,0.0625,-0.5625
3.695,26.0,25.0,33.0,70.0,9.0,-5.0,-7.0,16.0,-0.3436279296875,-0.37933349609375,0.7696533203125,0.381591796875,-0.2548828125,-0.857421875,0.4921875,4.5625,1.4375,0.0625
3.7,-23.0,-19.0,-61.0,-49.0,-20.0,-1.0,7.0,-1.0,-0.34417724609375,-0.37945556640625,0.769287109375,0.3817138671875,-0.251953125,-0.84326171875,0.49267578125,-3.4375,2.875,-1.375
3.705,5.0,10.0,7.0,-43.0,-23.0,-5.0,-1.0,2.0,-0.34490966796875,-0.3802490234375,0.7689208984375,0.3809814453125,-0.263671875,-0.853515625,0.4873046875,-8.125,0.25,1.375
3.71,-1.0,-8.0,7.0,-6.0,-7.0,10.0,-34.0,-6.0,-0.34588623046875,-0.38116455078125,0.76873779296875,0.37957763671875,-0.25341796875,-0.931640625,0.48291015625,-2.0,-0.625,2.3125
3.715,-3.0,22.0,38.0,51.0,28.0,-15.0,-11.0,-1.0,-0.3453369140625,-0.37908935546875,0.76995849609375,0.379638671875,-0.23876953125,-0.82666015625,0.5068359375,10.5625,0.625,5.3125
3.72,-5.0,4.0,-11.0,-12.0,-14.0,-2.0,0.0,-9.0
3.725,-9.0,9.0,35.0,36.0,-7.0,-12.0,3.0,-6.0,-0.345458984375,-0.377685546875,0.77069091796875,0.3795166015625,-0.24853515625,-0.8056640625,0.505859375,4.125,2.1875,4.375
3.73,-4.0,-3.0,-9.0,-21.0,-1.0,-5.0,-12.0,-2.0,-0.34625244140625,-0.37774658203125,0.77142333984375,0.3773193359375,-0.2822265625,-0.859375,0.46484375,-3.875,-4.25,11.125
3.735,-32.0,-41.0,-78.0,-59.0,-17.0,3.0,0.0,-4.0,-0.34637451171875,-0.3795166015625,0.77142333984375,0.3753662109375,-0.263671875,-0.8876953125,0.4736328125,-10.5,-8.0625,5.3125
3.74,-1.0,-7.0,-2.0,0.0,-10.0,-9.0,-10.0,-8.0,-0.34619140625,-0.38177490234375,0.771240234375,0.37359619140625,-0.26416015625,-0.93896484375,0.470703125,-10.9375,-9.625,3.0625
3.745,9.0,-18.0,27.0,35.0,28.0,6.0,16.0,12.0,-0.34521484375,-0.38116455078125,0.77252197265625,0.37237548828125,-0.23828125,-0.94677734375,0.48486328125,7.8125,-7.625,9.625
3.75,-12.0,-4.0,18.0,-10.0,6.0,0.0,-8.0,-1.0,-0.3433837890625,-0.37823486328125,0.7745361328125,0.37298583984375,-0.24365234375,-0.82861328125,0.46240234375,23.0625,-4.5,3.3125
3.755,-1.0,4.0,-7.0,-13.0,-16.0,0.0,4.0,-1.0,-0.3411865234375,-0.3753662109375,0.7769775390625,0.372802734375,-0.2412109375,-0.78369140625,0.5234375,1.4375,-3.125,3.5625
3.76,-1.0,5.0,16.0,10.0,0.0,-3.0,-4.0,-7.0
3.765,17.0,7.0,1.0,37.0,20.0,-1.0,-3.0,0.0,-0.341796875,-0.37677001953125,0.7764892578125,0.37188720703125,-0.26904296875,-0.8037109375,0.5029296875,-12.875,-1.75,0.0
3.77,8.0,7.0,1.0,0.0,1.0,-1.0,0.0,-1.0,-0.34130859375,-0.38275146484375,0.77435302734375,0.37060546875,-0.23876953125,-0.96826171875,0.49169921875,-9.5,-8.9375,-3.875
3.775,-2.0,-13.0,-9.0,-11.0,-4.0,0.0,-6.0,2.0
3.78,-6.0,-8.0,0.0,1.0,0.0,-5.0,-8.0,-32.0,-0.3387451171875,-0.381591796875,0.77557373046875,0.37164306640625,-0.23193359375,-0.9375,0.48828125,17.9375,-8.375,-3.375
3.785,1.0,16.0,-6.0,0.0,0.0,-9.0,-10.0,0.0,-0.33453369140625,-0.37725830078125,0.77825927734375,0.37420654296875,-0.2275390625,-0.77099609375,0.501953125,10.0625,-3.25,-4.3125
3.79,6.0,7.0,-9.0,3.0,3.0,3.0,3.0,8.0,-0.33477783203125,-0.379638671875,0.77716064453125,0.3739013671875,-0.236328125,-0.85791015625,0.51416015625,-15.0,-2.25,-4.6875
3.795,6.0,-11.0,-19.0,-27.0,-5.0,-3.0,-6.0,-1.0,-0.334716796875,-0.38214111328125,0.77655029296875,0.37261962890625,-0.28271484375,-0.90771484375,0.45947265625,-11.5,-9.1875,-2.375
3.8,-11.0,-1.0,-16.0,-20.0,-6.0,-3.0,-10.0,-9.0,-0.333740234375,-0.38409423828125,0.776611328125,0.3714599609375,-0.24658203125,-0.93896484375,0.46533203125,-4.4375,-12.0625,0.0
3.805,-10.0,1.0,4.0,27.0,9.0,-9.0,-11.0,3.0,-0.33172607421875,-0.38409423828125,0.7772216796875,0.3719482421875,-0.2109375,-0.8984375,0.49560546875,7.6875,-8.25,-3.375
3.81,1.0,3.0,5.0,24.0,17.0,-1.0,0.0,2.0,-0.32965087890625,-0.38238525390625,0.77813720703125,0.37359619140625,-0.21923828125,-0.8310546875,0.51611328125,15.1875,-3.0625,-6.25
3.815,-9.0,-29.0,-77.0,-32.0,-16.0,-5.0,-7.0,-7.0,-0.3282470703125,-0.38177490234375,0.77850341796875,0.3746337890625,-0.23974609375,-0.779296875,0.46435546875,8.0625,-4.1875,-7.625
3.82,-5.0,9.0,28.0,25.0,6.0,4.0,-4.0,-4.0,-0.32733154296875,-0.38409423828125,0.77789306640625,0.37432861328125,-0.21435546875,-0.85009765625,0.48193359375,-9.4375,-8.4375,-5.8125
