time,channel_1,channel_2,channel_3,channel_4,channel_5,channel_6,channel_7,channel_8,orientation_x,orientation_y,orientation_z,orientation_w,acceleration_x,acceleration_y,acceleration_z,gyroscope_x,gyroscope_y,gyroscope_z
0.005,0.0,-1.0,2.0,-1.0,-4.0,-3.0,-3.0,-3.0,-0.44775390625,-0.406982421875,0.66058349609375,0.44439697265625,-0.232421875,-0.95751953125,0.2783203125,0.5,1.3125,-0.5625
0.01,1.0,2.0,4.0,4.0,0.0,-3.0,-2.0,0.0
0.015,-1.0,-1.0,-2.0,-3.0,0.0,7.0,4.0,1.0,-0.4478759765625,-0.406982421875,0.6605224609375,0.44439697265625,-0.2373046875,-0.958984375,0.279296875,-1.125,0.9375,0.0625
0.02,-1.0,-1.0,2.0,8.0,5.0,1.0,-3.0,-2.0,-0.4481201171875,-0.4071044921875,0.66033935546875,0.44427490234375,-0.23291015625,-0.9609375,0.27197265625,-1.5625,0.4375,0.375
0.025,0.0,-3.0,-12.0,-11.0,-4.0,-3.0,-1.0,0.0,-0.44805908203125,-0.4071044921875,0.66033935546875,0.44427490234375,-0.2353515625,-0.97119140625,0.2802734375,-0.6875,-0.0625,0.8125
0.03,-3.0,-1.0,-1.0,8.0,-4.0,-2.0,-2.0,-2.0,-0.447998046875,-0.4068603515625,0.66046142578125,0.44439697265625,-0.23583984375,-0.97119140625,0.28564453125,1.0625,0.375,0.3125
0.035,-2.0,-4.0,-23.0,-22.0,-4.0,-3.0,-4.0,0.0,-0.4478759765625,-0.40655517578125,0.66058349609375,0.4447021484375,-0.2412109375,-0.96923828125,0.27099609375,2.875,0.6875,-0.4375
0.04,-2.0,-1.0,-1.0,1.0,-3.0,-2.0,0.0,-1.0,-0.44757080078125,-0.40618896484375,0.6607666015625,0.44500732421875,-0.23974609375,-0.9599609375,0.27685546875,3.3125,0.0,-0.875
0.045,-1.0,0.0,-2.0,5.0,-3.0,-3.0,-3.0,-1.0,-0.44744873046875,-0.40606689453125,0.66082763671875,0.4451904296875,-0.2373046875,-0.9521484375,0.2822265625,0.1875,0.1875,0.5
0.05,-1.0,-2.0,-4.0,0.0,3.0,3.0,1.0,1.0,-0.44744873046875,-0.40606689453125,0.66082763671875,0.4451904296875,-0.240234375,-0.96142578125,0.28466796875,-0.375,0.125,0.5625
0.055,1.0,2.0,-2.0,-15.0,-3.0,-4.0,-1.0,-1.0
0.06,-2.0,-4.0,6.0,1.0,-2.0,-2.0,-1.0,-3.0,-0.4473876953125,-0.406005859375,0.6610107421875,0.44500732421875,-0.2333984375,-0.96826171875,0.28125,0.125,-0.9375,1.25
0.065,-2.0,-4.0,-15.0,0.0,0.0,1.0,1.0,-2.0,-0.447265625,-0.40576171875,0.661376953125,0.44488525390625,-0.23974609375,-0.9677734375,0.28564453125,1.4375,-0.9375,1.75
0.07,2.0,5.0,16.0,3.0,0.0,-4.0,-1.0,1.0,-0.44696044921875,-0.40484619140625,0.662109375,0.44488525390625,-0.26123046875,-0.96826171875,0.30322265625,4.4375,-0.9375,2.0625
0.075,-1.0,-3.0,0.0,1.0,-3.0,-2.0,-1.0,0.0,-0.446533203125,-0.40374755859375,0.66326904296875,0.444580078125,-0.29443359375,-0.96435546875,0.306640625,5.75,-3.1875,2.4375
0.08,0.0,-2.0,-6.0,-7.0,-3.0,-1.0,-2.0,-2.0,-0.4459228515625,-0.4029541015625,0.66461181640625,0.44390869140625,-0.2861328125,-0.98046875,0.3095703125,4.6875,-5.4375,3.875
0.085,-1.0,1.0,5.0,6.0,-2.0,0.0,0.0,-1.0,-0.44512939453125,-0.40216064453125,0.6656494140625,0.44390869140625,-0.2451171875,-0.98486328125,0.2900390625,7.75,-3.75,3.1875
0.09,-2.0,-2.0,-3.0,-4.0,4.0,-1.0,-2.0,-2.0,-0.44439697265625,-0.40087890625,0.66656494140625,0.4443359375,-0.240234375,-0.96142578125,0.28173828125,10.8125,-1.1875,2.4375
0.095,-1.0,1.0,-1.0,7.0,3.0,-1.0,0.0,-2.0,-0.44390869140625,-0.39984130859375,0.66741943359375,0.444580078125,-0.24267578125,-0.943359375,0.27783203125,8.4375,-1.0,2.75
0.1,-1.0,1.0,3.0,0.0,-1.0,-3.0,-1.0,0.0,-0.4439697265625,-0.39892578125,0.66802978515625,0.44439697265625,-0.208984375,-0.93798828125,0.267578125,2.75,1.375,4.25
0.105,-1.0,1.0,-3.0,-3.0,-5.0,-3.0,0.0,-1.0
0.11,-2.0,2.0,5.0,5.0,1.0,3.0,3.0,-2.0,-0.44427490234375,-0.39837646484375,0.66839599609375,0.444091796875,-0.25146484375,-0.935546875,0.2861328125,1.6875,0.6875,3.8125
0.115,1.0,-2.0,0.0,3.0,-5.0,-4.0,-1.0,2.0,-0.4442138671875,-0.39801025390625,0.6690673828125,0.44329833984375,-0.21533203125,-0.95361328125,0.28515625,1.0625,-1.25,3.0625
0.12,-1.0,-1.0,4.0,1.0,-1.0,3.0,1.0,1.0
0.125,-1.0,-2.0,3.0,1.0,-1.0,-3.0,-1.0,-1.0,-0.44378662109375,-0.39752197265625,0.66949462890625,0.443603515625,-0.2275390625,-0.9423828125,0.2900390625,5.125,-0.4375,1.25
0.13,-2.0,-2.0,-6.0,-6.0,2.0,-1.0,-1.0,-2.0,-0.44317626953125,-0.3970947265625,0.67010498046875,0.44366455078125,-0.20947265625,-0.92529296875,0.2763671875,0.25,-1.4375,2.1875
0.135,-2.0,-1.0,-8.0,4.0,-2.0,-2.0,-2.0,-1.0,-0.4432373046875,-0.39776611328125,0.6697998046875,0.4434814453125,-0.203125,-0.95166015625,0.27197265625,-2.375,-0.375,1.3125
0.14,-1.0,0.0,-10.0,-5.0,7.0,-4.0,-2.0,-3.0,-0.44354248046875,-0.39825439453125,0.66943359375,0.443359375,-0.224609375,-0.9423828125,0.27783203125,-2.6875,0.5625,0.1875
0.145,-3.0,-2.0,-1.0,-5.0,-8.0,-7.0,-7.0,-2.0,-0.44378662109375,-0.398681640625,0.669189453125,0.44305419921875,-0.22900390625,-0.9384765625,0.2861328125,-3.125,0.1875,0.875
0.15,-2.0,-2.0,6.0,13.0,2.0,2.0,1.0,1.0,-0.44403076171875,-0.39910888671875,0.6689453125,0.4427490234375,-0.21826171875,-0.93603515625,0.29248046875,-4.0,0.0625,1.75
0.155,-2.0,-4.0,1.0,1.0,-4.0,1.0,1.0,0.0,-0.44427490234375,-0.39923095703125,0.66888427734375,0.4425048828125,-0.23193359375,-0.93896484375,0.29443359375,-2.0625,0.4375,1.6875
0.16,-2.0,-5.0,-8.0,4.0,0.0,-1.0,-3.0,-3.0,-0.4443359375,-0.39886474609375,0.669189453125,0.4422607421875,-0.2568359375,-0.93994140625,0.302734375,0.5,-0.0625,1.9375
0.165,0.0,0.0,-3.0,-3.0,-2.0,2.0,-1.0,-2.0,-0.4443359375,-0.39862060546875,0.66949462890625,0.442138671875,-0.24951171875,-0.94384765625,0.310546875,0.1875,-0.1875,1.625
0.17,-1.0,1.0,-3.0,-5.0,-1.0,-3.0,1.0,-1.0,-0.4443359375,-0.3985595703125,0.66949462890625,0.442138671875,-0.25537109375,-0.96630859375,0.30517578125,0.8125,-0.625,-0.125
0.175,0.0,-1.0,-2.0,2.0,0.0,-3.0,0.0,-1.0,-0.44390869140625,-0.39813232421875,0.66973876953125,0.4425048828125,-0.26953125,-0.9609375,0.30908203125,3.5,-0.625,-1.6875
0.18,0.0,-2.0,-4.0,8.0,-1.0,0.0,0.0,0.0,-0.44378662109375,-0.39801025390625,0.669677734375,0.44287109375,-0.26123046875,-0.9501953125,0.29638671875,-1.0625,0.0625,-2.625
0.185,-2.0,-6.0,-20.0,-8.0,-3.0,-1.0,-3.0,-1.0,-0.4437255859375,-0.39837646484375,0.66937255859375,0.443115234375,-0.2626953125,-0.94970703125,0.28759765625,-0.8125,-0.0625,-4.0
0.19,0.0,2.0,4.0,5.0,7.0,3.0,1.0,1.0
0.195,-3.0,1.0,-5.0,-8.0,-6.0,-6.0,-1.0,-1.0,-0.44366455078125,-0.39898681640625,0.66888427734375,0.443359375,-0.248046875,-0.96728515625,0.28466796875,-1.625,-0.25,-3.875
0.2,-1.0,-1.0,6.0,4.0,-1.0,1.0,-1.0,-1.0,-0.4432373046875,-0.399658203125,0.668212890625,0.44415283203125,-0.2265625,-0.97021484375,0.2978515625,1.5,0.125,-2.4375
0.205,0.0,-2.0,0.0,-1.0,-1.0,2.0,-1.0,-2.0
0.21,0.0,1.0,4.0,-1.0,-6.0,-3.0,-3.0,0.0,-0.4427490234375,-0.399658203125,0.66827392578125,0.444580078125,-0.22998046875,-0.953125,0.2880859375,2.8125,-0.9375,-1.5
0.215,0.0,3.0,-4.0,-14.0,-5.0,-1.0,-2.0,-3.0,-0.4423828125,-0.39984130859375,0.66839599609375,0.444580078125,-0.2275390625,-0.9482421875,0.2978515625,0.375,-1.75,-0.3125
0.22,-3.0,-3.0,5.0,5.0,-1.0,1.0,-1.0,-2.0,-0.442138671875,-0.40008544921875,0.66845703125,0.4444580078125,-0.2412109375,-0.94921875,0.29541015625,-0.5625,-2.0,-0.5625
0.225,-1.0,-2.0,-8.0,-11.0,0.0,-1.0,-4.0,-1.0,-0.44189453125,-0.40020751953125,0.66864013671875,0.44439697265625,-0.24755859375,-0.9580078125,0.29931640625,0.25,-2.125,-0.625
0.23,-1.0,0.0,-3.0,-3.0,0.0,-2.0,-3.0,-1.0
0.235,-1.0,-1.0,5.0,-3.0,-3.0,1.0,4.0,0.0,-0.4415283203125,-0.40032958984375,0.66888427734375,0.4443359375,-0.24658203125,-0.96484375,0.29931640625,1.0,-2.4375,-0.3125
0.24,0.0,-4.0,-2.0,3.0,-1.0,-1.0,1.0,-1.0,-0.44110107421875,-0.40020751953125,0.66900634765625,0.44464111328125,-0.23486328125,-0.96044921875,0.3017578125,2.375,-0.9375,-1.1875
0.245,0.0,0.0,5.0,-4.0,-1.0,-3.0,-2.0,1.0,-0.44061279296875,-0.4000244140625,0.6690673828125,0.44512939453125,-0.244140625,-0.95361328125,0.298828125,3.375,-0.4375,-2.4375
0.25,-1.0,-3.0,-3.0,-4.0,2.0,2.0,-1.0,0.0,-0.44036865234375,-0.39990234375,0.6690673828125,0.445556640625,-0.23876953125,-0.9443359375,0.29736328125,2.1875,0.4375,-2.25
0.255,-2.0,2.0,3.0,3.0,-1.0,-1.0,-1.0,0.0,-0.44024658203125,-0.40008544921875,0.66888427734375,0.44573974609375,-0.23583984375,-0.94677734375,0.29736328125,-0.5,-0.125,-1.75
0.26,-2.0,3.0,7.0,3.0,-5.0,-6.0,-3.0,-1.0,-0.4404296875,-0.40069580078125,0.66839599609375,0.44573974609375,-0.24169921875,-0.9560546875,0.30517578125,-2.3125,0.0,-1.25
0.265,-2.0,-3.0,-1.0,6.0,-2.0,0.0,3.0,0.0,-0.4404296875,-0.40093994140625,0.668212890625,0.44580078125,-0.23046875,-0.9609375,0.30078125,-1.1875,0.125,-0.9375
0.27,-2.0,2.0,8.0,-10.0,-4.0,-5.0,-4.0,-3.0
0.275,0.0,2.0,-1.0,-1.0,0.0,-3.0,-3.0,1.0,-0.44024658203125,-0.40087890625,0.668212890625,0.446044921875,-0.23193359375,-0.95458984375,0.30419921875,0.75,0.4375,-1.0625
0.28,0.0,-2.0,-4.0,18.0,4.0,1.0,0.0,-2.0,-0.44024658203125,-0.40093994140625,0.66815185546875,0.446044921875,-0.236328125,-0.9580078125,0.28662109375,0.3125,0.1875,0.25
0.285,-2.0,-3.0,-5.0,0.0,-6.0,-7.0,-5.0,-3.0
0.29,-1.0,1.0,2.0,4.0,-2.0,3.0,4.0,0.0,-0.4403076171875,-0.40093994140625,0.66815185546875,0.446044921875,-0.23095703125,-0.95263671875,0.27880859375,-0.125,0.125,0.1875
0.295,-1.0,-2.0,1.0,5.0,1.0,0.0,-2.0,-3.0,-0.4403076171875,-0.4010009765625,0.6680908203125,0.446044921875,-0.232421875,-0.94775390625,0.28955078125,-0.5625,0.875,-0.0625
0.3,-2.0,0.0,-3.0,-1.0,-1.0,0.0,-1.0,-1.0,-0.44049072265625,-0.40106201171875,0.66796875,0.446044921875,-0.2314453125,-0.94677734375,0.2998046875,-1.5625,1.0,0.25
0.305,-1.0,-1.0,-11.0,-3.0,5.0,2.0,2.0,-1.0,-0.44073486328125,-0.40118408203125,0.66778564453125,0.44586181640625,-0.23388671875,-0.94970703125,0.2978515625,-2.0625,0.6875,0.4375
0.31,-2.0,-2.0,-7.0,-4.0,-4.0,-2.0,-1.0,1.0,-0.44091796875,-0.4013671875,0.66766357421875,0.44573974609375,-0.236328125,-0.95458984375,0.29443359375,-1.75,0.1875,0.4375
0.315,-2.0,-1.0,6.0,-3.0,0.0,-5.0,-3.0,-3.0,-0.44091796875,-0.4013671875,0.66766357421875,0.44573974609375,-0.23193359375,-0.953125,0.3037109375,0.25,-0.9375,-0.125
0.32,0.0,-2.0,-2.0,-5.0,-2.0,-2.0,-2.0,-1.0,-0.440673828125,-0.4013671875,0.66778564453125,0.44580078125,-0.23095703125,-0.9609375,0.2978515625,1.25,-0.875,0.0
0.325,0.0,1.0,-2.0,-15.0,-5.0,-3.0,0.0,1.0,-0.440673828125,-0.4013671875,0.66778564453125,0.44580078125,-0.2333984375,-0.95166015625,0.2958984375,-0.3125,-0.4375,0.5
0.33,0.0,-1.0,-7.0,3.0,-4.0,0.0,-3.0,-1.0,-0.44073486328125,-0.4013671875,0.6678466796875,0.44561767578125,-0.23876953125,-0.94873046875,0.3037109375,-1.25,-0.375,0.9375
0.335,0.0,6.0,24.0,15.0,2.0,4.0,5.0,1.0,-0.44085693359375,-0.40155029296875,0.66790771484375,0.4453125,-0.23974609375,-0.955078125,0.2998046875,-1.9375,-0.875,0.8125
0.34,-3.0,-3.0,10.0,25.0,3.0,1.0,-3.0,-3.0,-0.44085693359375,-0.40155029296875,0.66790771484375,0.4453125,-0.23779296875,-0.96240234375,0.3037109375,-0.625,0.3125,0.875
0.345,0.0,-1.0,-2.0,4.0,-4.0,-1.0,1.0,-1.0,-0.44085693359375,-0.40155029296875,0.66790771484375,0.4453125,-0.244140625,-0.9677734375,0.30224609375,0.4375,0.0,0.0625
0.35,-2.0,-2.0,-1.0,8.0,3.0,-1.0,-3.0,-1.0,-0.44073486328125,-0.40118408203125,0.6680908203125,0.4454345703125,-0.2373046875,-0.95849609375,0.29638671875,2.625,0.375,0.625
0.355,-2.0,-2.0,-4.0,5.0,0.0,1.0,0.0,-2.0,-0.44073486328125,-0.40057373046875,0.66839599609375,0.445556640625,-0.24365234375,-0.94482421875,0.30126953125,3.0,0.875,1.375
0.36,-1.0,-4.0,-1.0,-16.0,-6.0,-4.0,-4.0,-1.0,-0.44085693359375,-0.40020751953125,0.66851806640625,0.445556640625,-0.24462890625,-0.94140625,0.3076171875,0.5625,1.125,1.0625
0.365,0.0,0.0,-10.0,0.0,0.0,-1.0,0.0,1.0,-0.4412841796875,-0.400146484375,0.66876220703125,0.44488525390625,-0.24658203125,-0.966796875,0.294921875,-0.6875,-0.6875,2.125
0.37,-3.0,-3.0,-19.0,-7.0,-3.0,-1.0,-2.0,-2.0
0.375,-4.0,-4.0,7.0,15.0,2.0,0.0,-2.0,-2.0,-0.44134521484375,-0.39923095703125,0.6690673828125,0.4451904296875,-0.2353515625,-0.94775390625,0.2978515625,2.6875,1.9375,1.0625
0.38,-1.0,-1.0,-1.0,-7.0,-7.0,0.0,-2.0,-3.0,-0.44134521484375,-0.39886474609375,0.66912841796875,0.44537353515625,-0.236328125,-0.943359375,0.30517578125,1.5625,1.3125,0.875
0.385,0.0,1.0,13.0,3.0,0.0,1.0,-2.0,-1.0
0.39,-1.0,1.0,-3.0,-6.0,-3.0,-1.0,1.0,1.0,-0.44140625,-0.3984375,0.66925048828125,0.44549560546875,-0.23876953125,-0.943359375,0.3037109375,1.625,1.375,0.9375
0.395,0.0,-2.0,-2.0,-4.0,-3.0,-2.0,-1.0,-1.0,-0.44158935546875,-0.39837646484375,0.6693115234375,0.44537353515625,-0.24365234375,-0.9423828125,0.3017578125,-1.25,-0.5625,0.6875
0.4,-1.0,-1.0,1.0,8.0,-3.0,-5.0,-1.0,-1.0,-0.441650390625,-0.39849853515625,0.6693115234375,0.44512939453125,-0.23828125,-0.951171875,0.29931640625,-1.25,-0.375,1.125
0.405,0.0,-2.0,-5.0,5.0,-1.0,5.0,5.0,2.0,-0.44146728515625,-0.39825439453125,0.66943359375,0.44537353515625,-0.23876953125,-0.9443359375,0.29638671875,2.375,0.0,-0.4375
0.41,0.0,-5.0,-6.0,-10.0,-4.0,-7.0,-5.0,-2.0
0.415,0.0,2.0,7.0,10.0,-8.0,-3.0,-1.0,-1.0,-0.44134521484375,-0.39813232421875,0.66949462890625,0.44549560546875,-0.24365234375,-0.9404296875,0.2880859375,1.75,-0.1875,-0.5
0.42,-1.0,-2.0,-7.0,-7.0,2.0,0.0,0.0,0.0,-0.44134521484375,-0.39813232421875,0.66949462890625,0.44549560546875,-0.23779296875,-0.9404296875,0.29931640625,-0.3125,0.25,0.125
0.425,-2.0,-3.0,-11.0,7.0,0.0,-2.0,-2.0,-1.0,-0.44146728515625,-0.39837646484375,0.66937255859375,0.44537353515625,-0.23193359375,-0.94384765625,0.2919921875,-1.25,-0.1875,0.5625
0.43,-2.0,-1.0,-1.0,-5.0,0.0,1.0,-1.0,-1.0,-0.44158935546875,-0.39862060546875,0.66925048828125,0.4451904296875,-0.2353515625,-0.95703125,0.296875,-1.8125,-0.1875,0.3125
0.435,-2.0,-5.0,-6.0,-3.0,-2.0,1.0,3.0,0.0,-0.44140625,-0.398681640625,0.66925048828125,0.44525146484375,-0.25,-0.955078125,0.30126953125,1.375,-0.9375,-0.9375
0.44,-4.0,-3.0,-8.0,5.0,-3.0,-4.0,-3.0,-2.0,-0.4410400390625,-0.3985595703125,0.66943359375,0.44549560546875,-0.24462890625,-0.94921875,0.30029296875,2.3125,-1.0,-1.375
0.445,-1.0,-1.0,16.0,10.0,-2.0,-1.0,-2.0,0.0,-0.44061279296875,-0.39886474609375,0.66949462890625,0.44561767578125,-0.2353515625,-0.9453125,0.3046875,-0.8125,-1.1875,-0.75
0.45,0.0,-3.0,5.0,-1.0,3.0,0.0,0.0,0.0
0.455,-2.0,-1.0,-1.0,-5.0,-2.0,1.0,-1.0,-2.0,-0.440673828125,-0.39910888671875,0.66949462890625,0.44537353515625,-0.240234375,-0.9541015625,0.2978515625,-1.5,-1.125,0.625
0.46,-2.0,-2.0,-5.0,-1.0,-1.0,-2.0,-1.0,0.0,-0.44061279296875,-0.39935302734375,0.66949462890625,0.4451904296875,-0.23388671875,-0.96435546875,0.298828125,0.375,-0.75,0.125
0.465,-1.0,4.0,21.0,6.0,-3.0,0.0,-1.0,0.0
0.47,-4.0,-6.0,-1.0,0.0,-2.0,0.0,-2.0,-2.0,-0.44049072265625,-0.3990478515625,0.66961669921875,0.4453125,-0.23974609375,-0.95849609375,0.30126953125,2.1875,0.1875,0.3125
0.475,0.0,2.0,-11.0,-17.0,-5.0,0.0,0.0,-1.0,-0.44036865234375,-0.398681640625,0.66986083984375,0.4454345703125,-0.24169921875,-0.94873046875,0.2998046875,-0.75,-0.25,0.0
0.48,1.0,2.0,-6.0,-4.0,-2.0,0.0,0.0,-3.0,-0.44036865234375,-0.398681640625,0.66986083984375,0.4454345703125,-0.2412109375,-0.95703125,0.3037109375,-0.0625,-0.3125,0.1875
0.485
0.49,-1.0,-2.0,-5.0,3.0,0.0,-3.0,1.0,1.0,-0.44061279296875,-0.39825439453125,0.66998291015625,0.4454345703125,-0.24072265625,-0.94775390625,0.3076171875,-0.6875,1.5625,0.75
0.495,-6.0,-4.0,4.0,2.0,0.0,-3.0,-4.0,-1.0,-0.44091796875,-0.39825439453125,0.66986083984375,0.44525146484375,-0.2421875,-0.9501953125,0.30126953125,-1.5,1.25,1.25
0.5,1.0,0.0,2.0,-3.0,-2.0,-9.0,-3.0,-3.0,-0.441650390625,-0.39801025390625,0.66973876953125,0.44500732421875,-0.2470703125,-0.94677734375,0.3056640625,-1.0625,1.6875,1.1875
0.505,-13.0,-8.0,3.0,1.0,0.0,-2.0,0.0,-3.0
0.51,2.0,-2.0,1.0,0.0,1.0,2.0,7.0,13.0,-0.4417724609375,-0.3975830078125,0.66986083984375,0.44500732421875,-0.24609375,-0.953125,0.33056640625,-0.5,1.6875,1.5625
0.515,-13.0,-4.0,0.0,7.0,-1.0,-4.0,-7.0,-2.0,-0.44183349609375,-0.396728515625,0.67010498046875,0.44537353515625,-0.23876953125,-0.95751953125,0.33740234375,2.4375,3.3125,1.875
0.52,-1.0,-6.0,4.0,2.0,0.0,3.0,5.0,17.0,-0.44195556640625,-0.39508056640625,0.6702880859375,0.44635009765625,-0.24853515625,-0.94970703125,0.34716796875,6.0,7.0,1.1875
0.525,23.0,-2.0,-1.0,-4.0,1.0,4.0,-1.0,11.0,-0.4422607421875,-0.3939208984375,0.670166015625,0.44732666015625,-0.25732421875,-0.943359375,0.35107421875,2.9375,7.1875,-1.625
0.53,-12.0,-11.0,-6.0,-5.0,-3.0,-2.0,-9.0,-7.0,-0.44293212890625,-0.3929443359375,0.66973876953125,0.44818115234375,-0.26171875,-0.94873046875,0.36572265625,-0.5625,9.0,-1.0625
0.535,4.0,7.0,3.0,12.0,3.0,-1.0,-3.0,-4.0,-0.4437255859375,-0.39117431640625,0.6695556640625,0.44927978515625,-0.2568359375,-0.95703125,0.365234375,3.5,11.125,1.1875
0.54,1.0,0.0,-12.0,-8.0,-2.0,-7.0,0.0,-1.0,-0.4447021484375,-0.3887939453125,0.6690673828125,0.4510498046875,-0.24462890625,-0.9384765625,0.3798828125,5.4375,16.3125,0.5625
0.545,-10.0,-2.0,-15.0,-5.0,0.0,-1.0,5.0,-16.0,-0.44775390625,-0.38739013671875,0.66717529296875,0.4520263671875,-0.28955078125,-0.9365234375,0.37646484375,-9.125,22.9375,-0.8125
0.55,12.0,-8.0,-10.0,-10.0,-3.0,8.0,-23.0,49.0,-0.45452880859375,-0.38653564453125,0.66357421875,0.45123291015625,-0.32373046875,-0.986328125,0.283203125,-14.0625,12.625,2.5625
0.555,5.0,7.0,-9.0,-6.0,-4.0,-7.0,-9.0,22.0
0.56,-71.0,-14.0,2.0,-1.0,-2.0,-5.0,13.0,-28.0,-0.45709228515625,-0.3876953125,0.66241455078125,0.4493408203125,-0.29296875,-0.9697265625,0.2412109375,-15.25,4.0625,5.25
0.565,5.0,-12.0,-24.0,-20.0,-9.0,-21.0,0.0,-56.0,-0.45733642578125,-0.38555908203125,0.66424560546875,0.4482421875,-0.29150390625,-1.03173828125,0.24560546875,16.1875,-2.1875,7.875
0.57,13.0,22.0,23.0,-4.0,1.0,32.0,-5.0,16.0
0.575,-1.0,-51.0,-2.0,9.0,4.0,-5.0,-37.0,22.0,-0.4554443359375,-0.3831787109375,0.666748046875,0.44854736328125,-0.32421875,-1.0107421875,0.2333984375,25.875,-9.5625,5.125
0.58,-69.0,-43.0,-13.0,-9.0,-14.0,-25.0,-12.0,-35.0,-0.446044921875,-0.37640380859375,0.67657470703125,0.44903564453125,-0.2587890625,-0.947265625,0.2578125,47.1875,-27.6875,11.25
0.585,64.0,26.0,-6.0,5.0,-2.0,-38.0,16.0,-3.0
0.59,-42.0,-12.0,9.0,1.0,3.0,-5.0,26.0,38.0,-0.4390869140625,-0.37213134765625,0.6827392578125,0.4500732421875,-0.24169921875,-0.9912109375,0.26513671875,57.0625,-29.9375,10.6875
0.595,-11.0,-48.0,-41.0,-4.0,8.0,45.0,78.0,52.0,-0.4307861328125,-0.36737060546875,0.68975830078125,0.4512939453125,-0.1904296875,-0.94287109375,0.28076171875,64.1875,-35.0625,13.3125
0.6,-51.0,-12.0,0.0,-10.0,-14.0,-20.0,39.0,40.0,-0.42236328125,-0.36224365234375,0.697509765625,0.451416015625,-0.18212890625,-0.90283203125,0.2880859375,64.75,-38.6875,19.6875
0.605,90.0,36.0,9.0,-1.0,2.0,4.0,8.0,-12.0,-0.41497802734375,-0.35809326171875,0.7049560546875,0.4500732421875,-0.2294921875,-0.8740234375,0.32568359375,52.1875,-39.9375,21.3125
0.61,65.0,-16.0,-28.0,-22.0,-29.0,-81.0,-79.0,32.0,-0.408447265625,-0.35491943359375,0.71148681640625,0.44830322265625,-0.21826171875,-0.837890625,0.36572265625,40.875,-37.0625,20.3125
0.615,15.0,-8.0,9.0,11.0,7.0,46.0,40.0,-10.0,-0.40234375,-0.3514404296875,0.717529296875,0.4468994140625,-0.2421875,-0.86083984375,0.4365234375,38.125,-32.5,18.125
0.62,-51.0,0.0,9.0,3.0,8.0,88.0,46.0,47.0,-0.3963623046875,-0.3482666015625,0.72296142578125,0.44598388671875,-0.2626953125,-0.83984375,0.4345703125,37.125,-31.0,12.5
0.625,31.0,52.0,-24.0,-18.0,-17.0,-92.0,-66.0,-87.0,-0.385986328125,-0.34649658203125,0.7308349609375,0.44366455078125,-0.1640625,-0.80859375,0.45166015625,14.75,-26.0625,10.4375
0.63,24.0,13.0,19.0,-1.0,-9.0,-54.0,-28.0,23.0
0.635,53.0,-33.0,-32.0,-4.0,6.0,16.0,60.0,-32.0,-0.3831787109375,-0.3463134765625,0.73321533203125,0.44232177734375,-0.23095703125,-0.83935546875,0.4794921875,8.625,-18.3125,7.75
0.64,-64.0,3.0,-42.0,-5.0,-9.0,-64.0,-33.0,-30.0,-0.3797607421875,-0.34637451171875,0.735595703125,0.4412841796875,-0.2109375,-0.837890625,0.47216796875,4.375,-8.6875,0.875
0.645,39.0,2.0,25.0,2.0,-6.0,-17.0,-55.0,-1.0,-0.3787841796875,-0.3465576171875,0.73577880859375,0.441650390625,-0.216796875,-0.841796875,0.49462890625,1.4375,-2.625,-1.375
0.65,-37.0,61.0,26.0,16.0,23.0,76.0,79.0,-9.0
0.655,65.0,2.0,33.0,10.0,7.0,-10.0,-13.0,22.0,-0.37884521484375,-0.34765625,0.73529052734375,0.4415283203125,-0.296875,-0.82421875,0.49072265625,-9.125,-2.6875,-5.1875
0.66,-46.0,-22.0,-22.0,-2.0,2.0,17.0,6.0,-30.0,-0.37939453125,-0.35064697265625,0.73370361328125,0.44122314453125,-0.2587890625,-0.87109375,0.4931640625,-18.6875,-2.375,-8.5
0.665,-57.0,26.0,31.0,-16.0,-9.0,20.0,-39.0,-41.0
0.67,-66.0,-32.0,-50.0,-10.0,7.0,57.0,-3.0,11.0,-0.379638671875,-0.35272216796875,0.7320556640625,0.44219970703125,-0.23828125,-0.92333984375,0.51416015625,-11.125,2.125,-10.5625
0.675,10.0,0.0,4.0,7.0,-12.0,-76.0,-18.0,-7.0,-0.3792724609375,-0.35296630859375,0.73095703125,0.44415283203125,-0.25634765625,-0.8447265625,0.51171875,-1.5,4.5625,-13.6875
0.68,63.0,-9.0,-21.0,-5.0,-5.0,-8.0,5.0,-33.0,-0.37908935546875,-0.35382080078125,0.72955322265625,0.4459228515625,-0.26953125,-0.84326171875,0.4892578125,-4.0625,3.0625,-15.0
0.685,-21.0,20.0,19.0,-7.0,5.0,37.0,15.0,22.0,-0.37957763671875,-0.35638427734375,0.72796630859375,0.446044921875,-0.197265625,-0.8916015625,0.48486328125,-15.375,0.8125,-6.5625
0.69,-16.0,15.0,34.0,10.0,5.0,33.0,24.0,-10.0,-0.380615234375,-0.35821533203125,0.7265625,0.4459228515625,-0.220703125,-0.94970703125,0.48876953125,-13.0,3.375,-2.75
0.695,-20.0,-15.0,-30.0,-3.0,17.0,78.0,27.0,16.0,-0.3814697265625,-0.358154296875,0.72576904296875,0.44659423828125,-0.26708984375,-0.9404296875,0.46630859375,-0.5,6.125,-3.6875
0.7,-5.0,46.0,11.0,10.0,-1.0,-8.0,38.0,61.0,-0.383544921875,-0.35882568359375,0.72381591796875,0.4473876953125,-0.24951171875,-0.880859375,0.466796875,-10.6875,6.0625,-2.1875
0.705,2.0,-15.0,13.0,-15.0,-2.0,-7.0,6.0,-14.0
0.71,21.0,15.0,4.0,-2.0,-1.0,7.0,0.0,4.0,-0.38555908203125,-0.36004638671875,0.72259521484375,0.44677734375,-0.27197265625,-0.91162109375,0.4638671875,-14.0,5.6875,-0.625
0.715,4.0,2.0,-33.0,-14.0,-14.0,-21.0,-16.0,-3.0,-0.3896484375,-0.36187744140625,0.71966552734375,0.4464111328125,-0.25634765625,-0.91064453125,0.46240234375,-9.75,9.5,-0.9375
0.72,10.0,-19.0,-3.0,2.0,5.0,10.0,-7.0,-5.0
0.725,12.0,-4.0,-18.0,-10.0,-8.0,-1.0,-11.0,3.0,-0.39129638671875,-0.3612060546875,0.7188720703125,0.44683837890625,-0.29833984375,-0.853515625,0.4326171875,-2.625,9.3125,-2.625
0.73,-18.0,5.0,-3.0,1.0,3.0,3.0,2.0,-3.0,-0.3961181640625,-0.36572265625,0.71441650390625,0.44598388671875,-0.2197265625,-0.90380859375,0.435546875,-32.125,11.5625,-4.1875
0.735,-3.0,-23.0,2.0,-23.0,-17.0,-14.0,-6.0,-3.0,-0.3997802734375,-0.36834716796875,0.71148681640625,0.44525146484375,-0.19580078125,-0.96435546875,0.43017578125,-26.5625,14.9375,1.4375
0.74,-4.0,6.0,-6.0,21.0,3.0,-12.0,-9.0,-4.0
0.745,-7.0,0.0,-7.0,-8.0,2.0,10.0,3.0,4.0,-0.403564453125,-0.3699951171875,0.70941162109375,0.44384765625,-0.2705078125,-0.9169921875,0.3837890625,-22.125,11.8125,3.75
0.75,-13.0,0.0,-11.0,-33.0,-11.0,-6.0,-6.0,12.0,-0.4105224609375,-0.37567138671875,0.705322265625,0.43914794921875,-0.25537109375,-0.95849609375,0.37353515625,-32.4375,6.125,4.4375
0.755,4.0,2.0,12.0,29.0,10.0,6.0,1.0,-5.0
0.76,1.0,5.0,25.0,3.0,-2.0,2.0,1.0,4.0,-0.413818359375,-0.377197265625,0.7032470703125,0.43804931640625,-0.2548828125,-1.03759765625,0.42138671875,-20.9375,12.8125,4.8125
0.765,-1.0,-4.0,-32.0,-12.0,-18.0,-17.0,-8.0,-7.0,-0.41650390625,-0.37567138671875,0.70233154296875,0.43829345703125,-0.28125,-0.947265625,0.3740234375,-0.9375,16.5625,5.625
0.77,0.0,8.0,15.0,5.0,5.0,3.0,1.0,0.0,-0.4183349609375,-0.3748779296875,0.70208740234375,0.43768310546875,-0.28564453125,-0.90478515625,0.34765625,-1.6875,7.8125,6.3125
0.775,3.0,4.0,19.0,14.0,7.0,20.0,3.0,-16.0,-0.420166015625,-0.37628173828125,0.70159912109375,0.43548583984375,-0.26025390625,-0.94482421875,0.32177734375,-12.5,-0.6875,9.25
0.78,0.0,-16.0,-12.0,3.0,3.0,-3.0,2.0,6.0,-0.42108154296875,-0.3775634765625,0.70184326171875,0.43310546875,-0.24951171875,-1.0048828125,0.34912109375,-9.25,-4.9375,11.8125
0.785,-2.0,6.0,33.0,4.0,7.0,-2.0,0.0,2.0,-0.42144775390625,-0.3759765625,0.70318603515625,0.43194580078125,-0.32177734375,-0.9853515625,0.3525390625,8.375,-2.0,10.9375
0.79,8.0,10.0,9.0,-25.0,-10.0,-7.0,-5.0,3.0,-0.4205322265625,-0.373046875,0.70489501953125,0.43255615234375,-0.298828125,-0.90869140625,0.349609375,20.6875,-0.3125,5.4375
0.795,0.0,15.0,62.0,24.0,11.0,-1.0,2.0,0.0,-0.4197998046875,-0.37091064453125,0.70635986328125,0.43267822265625,-0.27197265625,-0.87548828125,0.35107421875,14.75,-1.4375,6.6875
0.8,-2.0,-14.0,-45.0,12.0,0.0,-1.0,6.0,1.0,-0.41937255859375,-0.37054443359375,0.70782470703125,0.4310302734375,-0.26220703125,-0.92333984375,0.32421875,5.9375,-8.625,11.6875
0.805,6.0,11.0,8.0,-5.0,-1.0,1.0,2.0,9.0,-0.41741943359375,-0.369384765625,0.7109375,0.42877197265625,-0.2939453125,-0.93359375,0.361328125,13.125,-17.9375,15.25
0.81,3.0,5.0,-18.0,22.0,10.0,2.0,1.0,-1.0,-0.41143798828125,-0.36572265625,0.718017578125,0.42584228515625,-0.2744140625,-0.88232421875,0.3525390625,21.6875,-19.875,11.125
0.815,1.0,13.0,-22.0,-2.0,2.0,-2.0,3.0,-1.0
0.82,1.0,-16.0,13.0,24.0,-4.0,-2.0,0.0,0.0,-0.40911865234375,-0.3642578125,0.72039794921875,0.4254150390625,-0.2587890625,-0.89990234375,0.39404296875,16.5625,-12.125,7.875
0.825,-1.0,-9.0,-9.0,38.0,31.0,7.0,0.0,0.0,-0.4012451171875,-0.35589599609375,0.72808837890625,0.4268798828125,-0.31201171875,-0.84619140625,0.44384765625,41.8125,-14.75,7.3125
0.83,-3.0,22.0,23.0,-20.0,-11.0,-6.0,-2.0,-1.0
0.835,4.0,5.0,-13.0,15.0,-8.0,-4.0,2.0,1.0,-0.3963623046875,-0.35186767578125,0.7325439453125,0.4271240234375,-0.32470703125,-0.822265625,0.42822265625,38.125,-21.75,6.0625
0.84,-3.0,-21.0,-22.0,-19.0,-6.0,-2.0,-3.0,-4.0,-0.3863525390625,-0.34759521484375,0.7406005859375,0.42596435546875,-0.2412109375,-0.86083984375,0.50341796875,28.0,-25.375,7.875
0.845,3.0,4.0,23.0,25.0,10.0,4.0,3.0,1.0,-0.381591796875,-0.34521484375,0.74420166015625,0.42584228515625,-0.25634765625,-0.8603515625,0.5029296875,27.5,-21.5625,6.625
0.85,0.0,-8.0,-64.0,-27.0,-2.0,0.0,2.0,-1.0
0.855,-6.0,-3.0,5.0,-17.0,-6.0,-5.0,-4.0,-3.0,-0.37725830078125,-0.34307861328125,0.7470703125,0.4263916015625,-0.26220703125,-0.8193359375,0.50537109375,24.375,-17.625,1.125
0.86,-5.0,-2.0,16.0,-16.0,-12.0,-7.0,-5.0,-3.0,-0.3739013671875,-0.34173583984375,0.74908447265625,0.4268798828125,-0.27978515625,-0.85107421875,0.52294921875,17.5,-14.0625,-1.4375
0.865,11.0,-3.0,-25.0,-4.0,4.0,3.0,-1.0,2.0,-0.370849609375,-0.3404541015625,0.7506103515625,0.4278564453125,-0.27392578125,-0.8291015625,0.509765625,17.3125,-11.25,-4.0
0.87,8.0,-1.0,-15.0,-11.0,-9.0,-3.0,0.0,0.0,-0.3675537109375,-0.33935546875,0.752197265625,0.4288330078125,-0.2841796875,-0.82373046875,0.48291015625,18.75,-14.25,-5.8125
0.875,1.0,5.0,16.0,-3.0,6.0,3.0,3.0,0.0,-0.36492919921875,-0.33868408203125,0.7537841796875,0.4288330078125,-0.26318359375,-0.8037109375,0.5283203125,10.3125,-12.6875,-0.375
0.88,-9.0,-8.0,42.0,43.0,3.0,-2.0,-3.0,-1.0,-0.3629150390625,-0.33953857421875,0.75311279296875,0.4310302734375,-0.20751953125,-0.79150390625,0.60009765625,-6.4375,4.5625,-9.5625
0.885,-2.0,-4.0,-7.0,-15.0,0.0,0.0,-2.0,3.0,-0.36395263671875,-0.34100341796875,0.75128173828125,0.4322509765625,-0.25244140625,-0.79443359375,0.56591796875,-14.8125,8.3125,-11.3125
0.89,10.0,-10.0,10.0,12.0,2.0,2.0,1.0,-1.0
0.895,-7.0,-11.0,-50.0,-3.0,2.0,2.0,1.0,2.0,-0.36480712890625,-0.343017578125,0.74945068359375,0.43304443359375,-0.2626953125,-0.8056640625,0.5380859375,-15.9375,4.3125,-11.8125
0.9,-3.0,9.0,7.0,13.0,0.0,-1.0,-1.0,-1.0,-0.36541748046875,-0.345703125,0.74761962890625,0.43353271484375,-0.240234375,-0.85400390625,0.5302734375,-17.0625,1.625,-10.375
0.905,-11.0,-4.0,-1.0,6.0,0.0,-2.0,1.0,-2.0,-0.36627197265625,-0.3482666015625,0.7457275390625,0.43408203125,-0.2216796875,-0.89794921875,0.50146484375,-14.4375,3.4375,-8.375
0.91,-5.0,7.0,-12.0,-2.0,-3.0,-1.0,-2.0,-3.0,-0.3662109375,-0.34930419921875,0.74462890625,0.4351806640625,-0.2216796875,-0.90771484375,0.5068359375,-3.125,2.625,-7.4375
0.915,8.0,-4.0,8.0,27.0,-2.0,-2.0,-2.0,3.0,-0.36505126953125,-0.34832763671875,0.744140625,0.43780517578125,-0.2509765625,-0.86669921875,0.49755859375,5.4375,1.4375,-5.3125
0.92,0.0,-10.0,22.0,31.0,3.0,-2.0,0.0,-2.0,-0.36505126953125,-0.34881591796875,0.74359130859375,0.43829345703125,-0.24755859375,-0.87890625,0.48095703125,-0.1875,0.4375,-4.5
0.925,-2.0,7.0,-1.0,-3.0,0.0,0.0,-2.0,-3.0
0.93,-4.0,-4.0,-22.0,0.0,3.0,1.0,1.0,1.0,-0.36553955078125,-0.3492431640625,0.74310302734375,0.43841552734375,-0.2490234375,-0.8759765625,0.47900390625,-2.0625,1.5625,-1.9375
0.935,6.0,-1.0,15.0,-3.0,-2.0,-1.0,-4.0,-1.0,-0.3658447265625,-0.34942626953125,0.74285888671875,0.4383544921875,-0.25537109375,-0.86474609375,0.49462890625,-1.625,0.625,-0.875
0.94,-5.0,8.0,-8.0,-3.0,-2.0,-2.0,-1.0,-1.0,-0.36614990234375,-0.34979248046875,0.742431640625,0.4385986328125,-0.24365234375,-0.88330078125,0.5009765625,-2.125,1.75,-2.0
0.945,0.0,-1.0,-5.0,-4.0,0.0,1.0,-1.0,-1.0,-0.36669921875,-0.3492431640625,0.7418212890625,0.43963623046875,-0.2626953125,-0.85107421875,0.4755859375,2.0625,0.625,0.125
0.95,0.0,0.0,3.0,-2.0,1.0,-3.0,-1.0,0.0,-0.366943359375,-0.34954833984375,0.74169921875,0.43927001953125,-0.24755859375,-0.85302734375,0.484375,-2.75,-0.8125,0.875
0.955,-7.0,-5.0,-15.0,0.0,-1.0,-2.0,-2.0,-6.0,-0.36749267578125,-0.3504638671875,0.74127197265625,0.4388427734375,-0.24169921875,-0.861328125,0.4833984375,-6.1875,-0.1875,-0.25
0.96,-8.0,-7.0,-8.0,-10.0,1.0,1.0,-1.0,2.0,-0.36767578125,-0.35101318359375,0.74090576171875,0.43890380859375,-0.23193359375,-0.88134765625,0.4912109375,-2.6875,0.5625,-0.9375
0.965,3.0,-1.0,-8.0,-6.0,1.0,0.0,-1.0,0.0,-0.36773681640625,-0.35052490234375,0.7408447265625,0.43939208984375,-0.240234375,-0.8701171875,0.50439453125,2.3125,2.6875,-0.9375
0.97,-2.0,0.0,9.0,6.0,1.0,1.0,0.0,-1.0,-0.36810302734375,-0.35015869140625,0.74072265625,0.4395751953125,-0.2587890625,-0.8515625,0.4833984375,1.125,2.375,-0.6875
0.975,0.0,0.0,-14.0,3.0,0.0,2.0,1.0,0.0,-0.3685302734375,-0.350341796875,0.74053955078125,0.43939208984375,-0.2529296875,-0.84326171875,0.49072265625,-2.875,1.1875,-0.25
0.98,-9.0,-12.0,-23.0,-9.0,-4.0,-2.0,-1.0,-1.0,-0.3690185546875,-0.3511962890625,0.74005126953125,0.43902587890625,-0.240234375,-0.86083984375,0.49462890625,-7.1875,0.3125,-0.125
0.985,-2.0,-20.0,-9.0,-1.0,-4.0,-3.0,0.0,-2.0,-0.36981201171875,-0.35223388671875,0.73956298828125,0.43841552734375,-0.24853515625,-0.88232421875,0.4892578125,-8.1875,0.4375,0.375
0.99,-3.0,4.0,-15.0,-7.0,4.0,5.0,1.0,2.0,-0.3704833984375,-0.35223388671875,0.73919677734375,0.4384765625,-0.2412109375,-0.87548828125,0.490234375,1.625,2.25,0.0625
0.995,-3.0,1.0,2.0,-7.0,0.0,-2.0,-4.0,0.0
1.0,-4.0,-27.0,-33.0,-15.0,-7.0,-4.0,-1.0,-2.0,-0.37054443359375,-0.35174560546875,0.73919677734375,0.43878173828125,-0.2470703125,-0.8681640625,0.49951171875,1.875,2.1875,-0.125
1.005,-6.0,-2.0,4.0,-3.0,-3.0,-3.0,-2.0,-10.0,-0.37103271484375,-0.35107421875,0.73907470703125,0.43914794921875,-0.236328125,-0.853515625,0.4853515625,-0.4375,2.6875,0.75
1.01,3.0,-8.0,-20.0,-8.0,-3.0,1.0,1.0,1.0
1.015,3.0,4.0,-3.0,3.0,0.0,-3.0,-2.0,0.0,-0.37249755859375,-0.35150146484375,0.73858642578125,0.43841552734375,-0.26123046875,-0.86865234375,0.48974609375,-5.4375,1.6875,1.5
1.02,6.0,0.0,1.0,7.0,-1.0,-1.0,-2.0,-3.0,-0.3731689453125,-0.3519287109375,0.73822021484375,0.43804931640625,-0.2392578125,-0.87548828125,0.49267578125,-5.4375,2.3125,1.5625
1.025,-14.0,-3.0,-25.0,-1.0,-3.0,-3.0,-5.0,-4.0,-0.37384033203125,-0.35186767578125,0.73785400390625,0.4381103515625,-0.24365234375,-0.8701171875,0.49755859375,-2.8125,4.3125,0.75
1.03,-7.0,-3.0,14.0,1.0,-1.0,-2.0,-1.0,0.0,-0.3746337890625,-0.35174560546875,0.73736572265625,0.4383544921875,-0.24853515625,-0.861328125,0.4951171875,-2.6875,5.4375,-0.3125
1.035,-6.0,3.0,13.0,1.0,2.0,1.0,-1.0,1.0,-0.37542724609375,-0.351318359375,0.7369384765625,0.43878173828125,-0.24658203125,-0.85986328125,0.50146484375,-1.625,6.5625,-0.5
1.04,-1.0,-9.0,2.0,4.0,2.0,-1.0,1.0,-6.0,-0.37646484375,-0.35107421875,0.73626708984375,0.43914794921875,-0.25,-0.85107421875,0.5068359375,-4.25,7.75,-0.75
1.045,-1.0,-2.0,1.0,-2.0,-1.0,0.0,-3.0,-3.0,-0.3778076171875,-0.3515625,0.73541259765625,0.43914794921875,-0.265625,-0.85791015625,0.49462890625,-8.5625,6.1875,-1.4375
1.05,-9.0,-3.0,3.0,4.0,-3.0,-6.0,-1.0,-2.0,-0.37921142578125,-0.35235595703125,0.73431396484375,0.43902587890625,-0.2490234375,-0.85791015625,0.48779296875,-10.6875,6.375,-1.0625
1.055,3.0,15.0,20.0,9.0,4.0,5.0,16.0,8.0,-0.38055419921875,-0.35260009765625,0.7333984375,0.43927001953125,-0.2373046875,-0.85498046875,0.48828125,-7.25,8.25,-0.5
1.06,20.0,5.0,5.0,5.0,1.0,-2.0,-2.0,8.0
1.065,7.0,-3.0,11.0,-3.0,-4.0,-2.0,-6.0,5.0,-0.38519287109375,-0.3538818359375,0.729736328125,0.44036865234375,-0.25830078125,-0.86474609375,0.5224609375,-18.5,14.6875,-4.375
1.07,8.0,-3.0,9.0,4.0,4.0,1.0,2.0,14.0
1.075,17.0,2.0,-7.0,-12.0,-3.0,-1.0,-1.0,5.0,-0.388671875,-0.35516357421875,0.7269287109375,0.44085693359375,-0.26611328125,-0.892578125,0.490234375,-20.3125,18.6875,-5.25
1.08,21.0,-7.0,2.0,-4.0,1.0,1.0,2.0,-3.0,-0.392578125,-0.35626220703125,0.72406005859375,0.44122314453125,-0.27294921875,-0.86572265625,0.44970703125,-20.25,20.25,-4.1875
1.085,-15.0,16.0,5.0,8.0,-2.0,-2.0,-5.0,-16.0,-0.39642333984375,-0.35791015625,0.7213134765625,0.44091796875,-0.2861328125,-0.8828125,0.43701171875,-22.8125,16.5625,-3.3125
1.09,-14.0,-7.0,-10.0,-5.0,3.0,6.0,-5.0,-5.0,-0.39984130859375,-0.35980224609375,0.71868896484375,0.4405517578125,-0.2666015625,-0.896484375,0.4404296875,-23.25,14.8125,-2.5625
1.095,-2.0,-4.0,-4.0,-8.0,-3.0,-3.0,-5.0,7.0,-0.40338134765625,-0.3614501953125,0.71575927734375,0.44073486328125,-0.27978515625,-0.9189453125,0.4306640625,-21.125,17.0,-5.0625
1.1,24.0,-14.0,11.0,-1.0,-3.0,-1.0,1.0,5.0,-0.4066162109375,-0.3621826171875,0.71331787109375,0.44122314453125,-0.30712890625,-0.9287109375,0.4013671875,-13.4375,16.5,-5.1875
1.105,-4.0,15.0,-4.0,4.0,4.0,9.0,22.0,-2.0,-0.40966796875,-0.3629150390625,0.7108154296875,0.4417724609375,-0.26904296875,-0.94677734375,0.4033203125,-13.0625,17.5625,-3.0625
1.11,3.0,-4.0,-16.0,-12.0,-2.0,4.0,24.0,1.0,-0.412353515625,-0.36279296875,0.70880126953125,0.442626953125,-0.26806640625,-0.93896484375,0.4052734375,-7.375,17.625,-1.9375
1.115,-10.0,-23.0,-2.0,5.0,4.0,-1.0,-16.0,-16.0,-0.41796875,-0.3616943359375,0.7054443359375,0.443603515625,-0.29833984375,-0.87548828125,0.3623046875,-9.1875,14.875,-1.0625
1.12,-4.0,-19.0,-15.0,3.0,3.0,4.0,3.0,28.0,-0.4202880859375,-0.363037109375,0.7037353515625,0.443115234375,-0.27587890625,-0.94384765625,0.38427734375,-14.375,8.8125,-0.125
1.125,-43.0,-16.0,1.0,-1.0,-10.0,-21.0,-20.0,-43.0
1.13,12.0,8.0,25.0,10.0,2.0,23.0,4.0,-4.0,-0.4222412109375,-0.364013671875,0.70233154296875,0.442626953125,-0.26025390625,-0.986328125,0.3505859375,-8.8125,7.625,2.5
1.135,19.0,12.0,6.0,-3.0,0.0,2.0,-6.0,6.0,-0.423095703125,-0.363525390625,0.701904296875,0.44287109375,-0.26123046875,-0.96044921875,0.34326171875,3.5625,5.8125,2.9375
1.14,-15.0,12.0,6.0,5.0,-1.0,-1.0,-1.0,-1.0,-0.42266845703125,-0.3616943359375,0.702880859375,0.4432373046875,-0.2841796875,-0.9541015625,0.35107421875,15.1875,0.5,5.375
1.145,28.0,-38.0,-7.0,-12.0,-6.0,-14.0,1.0,9.0,-0.42041015625,-0.359619140625,0.70489501953125,0.44390869140625,-0.28662109375,-0.96142578125,0.35205078125,24.3125,-8.5625,3.625
1.15,44.0,-10.0,22.0,0.0,-7.0,-30.0,-5.0,17.0,-0.416259765625,-0.35589599609375,0.70794677734375,0.44586181640625,-0.240234375,-0.8759765625,0.3701171875,38.25,-10.4375,2.1875
1.155,36.0,48.0,5.0,1.0,-3.0,15.0,14.0,3.0,-0.41229248046875,-0.3531494140625,0.71112060546875,0.44677734375,-0.25,-0.81494140625,0.37744140625,30.375,-14.8125,2.8125
1.16,44.0,11.0,-4.0,-2.0,4.0,41.0,13.0,-40.0,-0.4091796875,-0.35150146484375,0.7137451171875,0.44677734375,-0.26806640625,-0.81298828125,0.38134765625,20.75,-15.25,3.5625
1.165,13.0,33.0,33.0,15.0,16.0,40.0,-21.0,-15.0,-0.406005859375,-0.35101318359375,0.7156982421875,0.4468994140625,-0.27685546875,-0.83251953125,0.4052734375,14.5625,-16.625,-2.125
1.17,-21.0,-1.0,-20.0,3.0,-4.0,-1.0,14.0,-16.0,-0.4027099609375,-0.35150146484375,0.71710205078125,0.447265625,-0.22412109375,-0.90771484375,0.42724609375,11.3125,-16.3125,-2.375
1.175,14.0,-44.0,0.0,9.0,15.0,61.0,24.0,-15.0,-0.397705078125,-0.35028076171875,0.72039794921875,0.44732666015625,-0.23388671875,-0.86572265625,0.43408203125,11.5,-10.25,5.8125
1.18,-5.0,16.0,-21.0,-15.0,-11.0,-53.0,-55.0,22.0
1.185,-10.0,0.0,32.0,10.0,4.0,23.0,3.0,23.0,-0.3963623046875,-0.3502197265625,0.7222900390625,0.445556640625,-0.2724609375,-0.88818359375,0.44970703125,3.6875,-13.3125,9.625
1.19,9.0,4.0,-29.0,0.0,2.0,14.0,57.0,75.0,-0.39361572265625,-0.34893798828125,0.7257080078125,0.4434814453125,-0.24462890625,-0.88232421875,0.47802734375,8.1875,-7.1875,7.4375
1.195,-13.0,-17.0,2.0,1.0,7.0,24.0,34.0,25.0,-0.39227294921875,-0.34710693359375,0.7275390625,0.4429931640625,-0.28369140625,-0.8662109375,0.4970703125,11.0,-5.9375,7.125
1.2,-45.0,40.0,19.0,-4.0,-16.0,-63.0,-52.0,-6.0
1.205,54.0,14.0,-13.0,-1.0,-3.0,-4.0,-10.0,49.0,-0.39111328125,-0.3455810546875,0.7293701171875,0.44219970703125,-0.314453125,-0.833984375,0.482421875,9.0625,-7.75,5.625
1.21,0.0,-4.0,0.0,1.0,-8.0,-65.0,-31.0,-1.0,-0.389892578125,-0.345458984375,0.7305908203125,0.44134521484375,-0.2646484375,-0.8232421875,0.4833984375,1.5625,-8.75,4.125
1.215,-35.0,-53.0,22.0,3.0,12.0,32.0,4.0,-35.0,-0.38934326171875,-0.34588623046875,0.73114013671875,0.44061279296875,-0.2607421875,-0.876953125,0.4970703125,-2.375,-5.3125,3.0
1.22,-21.0,-3.0,13.0,7.0,-2.0,29.0,15.0,-23.0,-0.3892822265625,-0.34588623046875,0.731201171875,0.4405517578125,-0.27880859375,-0.8837890625,0.50341796875,-1.5,-0.1875,0.125
1.225,-21.0,21.0,-2.0,7.0,6.0,29.0,4.0,-25.0,-0.38885498046875,-0.3450927734375,0.7314453125,0.44122314453125,-0.28173828125,-0.865234375,0.49658203125,4.625,1.1875,-1.8125
1.23,-37.0,-21.0,-14.0,12.0,10.0,51.0,54.0,28.0,-0.38836669921875,-0.34454345703125,0.73162841796875,0.44171142578125,-0.27783203125,-0.8388671875,0.48779296875,3.0625,-0.0625,-2.3125
1.235,24.0,-4.0,21.0,12.0,7.0,67.0,-7.0,23.0,-0.38916015625,-0.34539794921875,0.73114013671875,0.44122314453125,-0.279296875,-0.87109375,0.4765625,-6.25,1.3125,-0.3125
1.24,-15.0,30.0,-24.0,-13.0,-16.0,-57.0,-19.0,-25.0
1.245,-15.0,-65.0,-42.0,-5.0,-7.0,-29.0,-15.0,-16.0,-0.38995361328125,-0.346435546875,0.73016357421875,0.44134521484375,-0.2685546875,-0.89404296875,0.48388671875,-8.3125,3.4375,-3.0
1.25,45.0,7.0,32.0,7.0,-2.0,3.0,13.0,27.0,-0.3905029296875,-0.34564208984375,0.7294921875,0.442626953125,-0.2724609375,-0.84912109375,0.4736328125,0.75,5.4375,-0.8125
1.255,-4.0,-21.0,-6.0,-3.0,-5.0,-15.0,0.0,34.0
1.26,13.0,53.0,13.0,6.0,8.0,26.0,22.0,-22.0,-0.39154052734375,-0.34576416015625,0.72894287109375,0.44244384765625,-0.29638671875,-0.86328125,0.4716796875,-5.125,4.3125,-0.5625
1.265,18.0,-36.0,10.0,8.0,15.0,70.0,42.0,11.0,-0.39190673828125,-0.3460693359375,0.728515625,0.44256591796875,-0.265625,-0.87060546875,0.46728515625,-3.25,2.1875,-1.125
1.27,-29.0,-13.0,-86.0,-35.0,-17.0,-13.0,-2.0,-3.0,-0.39215087890625,-0.34661865234375,0.72802734375,0.44268798828125,-0.2509765625,-0.87158203125,0.46435546875,-3.5625,1.6875,-1.375
1.275,13.0,13.0,13.0,7.0,-4.0,-15.0,-2.0,-2.0,-0.39276123046875,-0.3470458984375,0.7275390625,0.44268798828125,-0.26318359375,-0.85205078125,0.458984375,-4.8125,2.5,-1.125
1.28,9.0,4.0,3.0,-17.0,-11.0,-6.0,2.0,-5.0,-0.3939208984375,-0.34808349609375,0.72662353515625,0.4422607421875,-0.2861328125,-0.85595703125,0.44189453125,-10.0,2.5,-1.6875
1.285,0.0,49.0,1.0,-1.0,3.0,16.0,15.0,10.0,-0.39520263671875,-0.349853515625,0.7254638671875,0.44171142578125,-0.27587890625,-0.8310546875,0.431640625,-14.25,1.9375,-3.125
1.29,4.0,-5.0,-3.0,-8.0,-7.0,-6.0,-2.0,-1.0,-0.39691162109375,-0.35284423828125,0.7237548828125,0.44061279296875,-0.2607421875,-0.84521484375,0.4599609375,-24.875,1.6875,-3.5
1.295,3.0,-3.0,-12.0,-32.0,-18.0,0.0,0.0,-4.0,-0.3992919921875,-0.35589599609375,0.7215576171875,0.43951416015625,-0.2587890625,-0.94140625,0.453125,-24.6875,5.4375,-1.4375
1.3,1.0,-7.0,-1.0,7.0,10.0,2.0,-3.0,-5.0,-0.40087890625,-0.35687255859375,0.7203369140625,0.4393310546875,-0.255859375,-0.92138671875,0.44677734375,-10.9375,7.3125,0.0625
1.305,-3.0,0.0,4.0,-12.0,-14.0,-4.0,-3.0,2.0,-0.40240478515625,-0.358154296875,0.71929931640625,0.43853759765625,-0.28271484375,-0.880859375,0.40576171875,-11.6875,3.0,0.0625
1.31,3.0,0.0,-28.0,-10.0,-4.0,-6.0,-4.0,-6.0,-0.4052734375,-0.3626708984375,0.717529296875,0.43511962890625,-0.2822265625,-0.958984375,0.4306640625,-17.375,-1.125,2.75
1.315,-9.0,6.0,-8.0,-3.0,-2.0,0.0,-2.0,-12.0
1.32,1.0,-11.0,-7.0,-24.0,-15.0,-2.0,0.0,1.0,-0.4061279296875,-0.36260986328125,0.7169189453125,0.4354248046875,-0.27978515625,-0.97216796875,0.44482421875,-2.125,6.25,0.125
1.325,0.0,17.0,5.0,1.0,-2.0,0.0,1.0,-1.0,-0.40777587890625,-0.359375,0.71649169921875,0.437255859375,-0.29248046875,-0.83447265625,0.41064453125,0.1875,8.1875,1.1875
1.33,1.0,0.0,5.0,9.0,5.0,-4.0,-3.0,-4.0
1.335,2.0,9.0,2.0,3.0,3.0,-2.0,-3.0,0.0,-0.40985107421875,-0.36083984375,0.71575927734375,0.435302734375,-0.27490234375,-0.88134765625,0.408203125,-17.25,2.75,6.75
1.34,0.0,-6.0,-18.0,16.0,2.0,-6.0,-7.0,-4.0,-0.4129638671875,-0.36285400390625,0.71484375,0.43218994140625,-0.30419921875,-0.96630859375,0.38916015625,-4.0,0.75,5.6875
1.345,-1.0,-9.0,-6.0,-6.0,-1.0,1.0,0.0,-1.0,-0.41265869140625,-0.362060546875,0.71539306640625,0.4322509765625,-0.27587890625,-0.9306640625,0.39111328125,7.125,-0.5,3.25
1.35,-3.0,-6.0,11.0,9.0,3.0,-1.0,-1.0,-3.0,-0.4122314453125,-0.36065673828125,0.71636962890625,0.43212890625,-0.2783203125,-0.89501953125,0.36181640625,11.4375,-1.5,5.9375
1.355,1.0,11.0,4.0,-6.0,-4.0,-4.0,0.0,8.0,-0.4124755859375,-0.36053466796875,0.7174072265625,0.43035888671875,-0.2802734375,-0.90478515625,0.36181640625,1.3125,-5.625,11.5
1.36,-2.0,-2.0,7.0,1.0,-1.0,-2.0,-3.0,3.0,-0.41217041015625,-0.3604736328125,0.7188720703125,0.42822265625,-0.28271484375,-0.92578125,0.3955078125,0.6875,-9.0625,12.9375
1.365,-1.0,-7.0,14.0,-2.0,-3.0,1.0,-1.0,-4.0,-0.4111328125,-0.3590087890625,0.72100830078125,0.4268798828125,-0.3173828125,-0.9189453125,0.38623046875,12.125,-9.625,11.0625
1.37,1.0,3.0,-7.0,-10.0,-5.0,1.0,-1.0,0.0,-0.40728759765625,-0.3560791015625,0.7254638671875,0.4254150390625,-0.29345703125,-0.89697265625,0.39306640625,12.1875,-12.5,7.875
1.375,-8.0,-24.0,-51.0,-42.0,-10.0,-3.0,-4.0,-3.0,-0.40521240234375,-0.3551025390625,0.72784423828125,0.4241943359375,-0.29052734375,-0.89794921875,0.41064453125,12.625,-14.5625,9.4375
1.38,1.0,5.0,43.0,28.0,3.0,-2.0,-3.0,-5.0
1.385,-0.4022216796875,-0.35260009765625,0.7310791015625,0.42352294921875,-0.298828125,-0.86083984375,0.4091796875,23.8125,-15.8125,9.75
1.39,-1.0,-4.0,31.0,8.0,2.0,0.0,1.0,1.0,-0.3990478515625,-0.3502197265625,0.73406982421875,0.42327880859375,-0.29638671875,-0.83203125,0.41552734375,23.75,-15.8125,6.5
1.395,-1.0,9.0,0.0,-6.0,-11.0,-4.0,-3.0,-1.0,-0.396240234375,-0.34881591796875,0.73626708984375,0.42340087890625,-0.2783203125,-0.82470703125,0.43310546875,17.1875,-12.9375,2.625
1.4,-1.0,-8.0,2.0,4.0,0.0,0.0,0.0,0.0,-0.39434814453125,-0.34814453125,0.737548828125,0.42340087890625,-0.28125,-0.85546875,0.462890625,9.125,-8.75,1.0625
1.405,-2.0,-1.0,-27.0,-19.0,-1.0,-3.0,1.0,0.0,-0.392822265625,-0.3466796875,0.7388916015625,0.4237060546875,-0.2919921875,-0.8623046875,0.482421875,11.875,-5.0625,2.3125
1.41,-3.0,-1.0,-15.0,-21.0,-12.0,-3.0,-1.0,-2.0,-0.39154052734375,-0.3453369140625,0.7401123046875,0.42388916015625,-0.306640625,-0.8515625,0.4462890625,12.4375,-5.125,1.6875
1.415,1.0,0.0,-1.0,7.0,1.0,1.0,1.0,1.0,-0.38995361328125,-0.3448486328125,0.74114990234375,0.42388916015625,-0.29931640625,-0.84716796875,0.4775390625,6.8125,-8.0625,-0.375
1.42,0.0,-4.0,14.0,-6.0,-4.0,-3.0,-1.0,-1.0,-0.3880615234375,-0.34454345703125,0.74237060546875,0.42376708984375,-0.29296875,-0.8662109375,0.4658203125,8.8125,-10.5,0.375
1.425,-5.0,-14.0,4.0,15.0,7.0,-1.0,-3.0,-2.0,-0.38592529296875,-0.3436279296875,0.7437744140625,0.4239501953125,-0.296875,-0.87548828125,0.49072265625,12.0,-9.5,0.5
1.43,2.0,0.0,6.0,-9.0,-7.0,-3.0,-1.0,-1.0,-0.3818359375,-0.34228515625,0.745361328125,0.426025390625,-0.28662109375,-0.85595703125,0.47216796875,11.125,-6.3125,-5.75
1.435,0.0,-5.0,-13.0,-18.0,-4.0,-2.0,-1.0,-1.0
1.44,-2.0,-3.0,16.0,11.0,-1.0,-2.0,-1.0,-1.0,-0.37945556640625,-0.34124755859375,0.7464599609375,0.42694091796875,-0.275390625,-0.8525390625,0.50439453125,13.375,-8.0,-3.5
1.445,0.0,2.0,-5.0,-16.0,-4.0,-2.0,-1.0,0.0,-0.3748779296875,-0.3397216796875,0.748291015625,0.42901611328125,-0.26806640625,-0.81591796875,0.515625,6.4375,-5.25,-6.25
1.45,-2.0,-7.0,18.0,-11.0,0.0,1.0,-2.0,-1.0,-0.37396240234375,-0.340576171875,0.74774169921875,0.4300537109375,-0.2529296875,-0.8271484375,0.52294921875,-2.5,-1.5625,-8.8125
1.455,-1.0,-10.0,-27.0,20.0,6.0,2.0,-1.0,-8.0,-0.37359619140625,-0.34149169921875,0.7470703125,0.43084716796875,-0.26708984375,-0.82470703125,0.5068359375,-4.125,-0.6875,-8.25
1.46,-2.0,-1.0,28.0,1.0,-6.0,-3.0,-1.0,-1.0,-0.3724365234375,-0.3424072265625,0.74664306640625,0.431884765625,-0.25,-0.84326171875,0.51171875,-0.75,-3.625,-8.8125
1.465,3.0,19.0,49.0,31.0,4.0,0.0,-1.0,1.0,-0.37127685546875,-0.3431396484375,0.74609375,0.43328857421875,-0.23388671875,-0.84716796875,0.54931640625,-1.375,-0.8125,-9.6875
1.47,1.0,3.0,3.0,-2.0,-6.0,1.0,1.0,2.0,-0.37054443359375,-0.3433837890625,0.7452392578125,0.4351806640625,-0.224609375,-0.83154296875,0.54931640625,-0.625,3.625,-10.875
1.475,0.0,-2.0,-10.0,-12.0,-2.0,0.0,-3.0,0.0,-0.3707275390625,-0.3447265625,0.7437744140625,0.4364013671875,-0.232421875,-0.80908203125,0.52685546875,-9.8125,4.375,-10.625
1.48,-14.0,-9.0,-15.0,-6.0,-4.0,-3.0,-3.0,-2.0,-0.37139892578125,-0.34661865234375,0.7423095703125,0.4368896484375,-0.24658203125,-0.83056640625,0.53662109375,-14.8125,3.125,-8.5
1.485,14.0,11.0,-6.0,-8.0,0.0,2.0,4.0,5.0,-0.3721923828125,-0.34906005859375,0.7406005859375,0.4371337890625,-0.2412109375,-0.86669921875,0.52294921875,-17.125,2.25,-8.25
1.49,2.0,2.0,-9.0,-9.0,-5.0,-2.0,-1.0,-2.0,-0.37261962890625,-0.35113525390625,0.73895263671875,0.4378662109375,-0.23193359375,-0.89013671875,0.521484375,-12.9375,2.8125,-9.375
1.495,-4.0,7.0,5.0,19.0,5.0,2.0,1.0,0.0,-0.373046875,-0.35247802734375,0.73748779296875,0.43890380859375,-0.23583984375,-0.896484375,0.5078125,-8.0,4.4375,-8.8125
1.5,1.0,-3.0,-24.0,-16.0,-1.0,-2.0,-1.0,0.0,-0.3734130859375,-0.35400390625,0.73565673828125,0.44049072265625,-0.25634765625,-0.8984375,0.47607421875,-0.875,1.5625,-6.375
1.505,1.0,4.0,-10.0,-10.0,-2.0,-11.0,-6.0,-2.0,-0.3731689453125,-0.35400390625,0.7353515625,0.44122314453125,-0.248046875,-0.89013671875,0.46728515625,3.0,0.6875,-4.4375
1.51,-7.0,-26.0,19.0,11.0,-3.0,-4.0,-3.0,-2.0,-0.3731689453125,-0.35382080078125,0.73455810546875,0.44268798828125,-0.2412109375,-0.87744140625,0.49365234375,-1.125,3.4375,-3.8125
1.515,1.0,6.0,0.0,12.0,0.0,-3.0,-4.0,-2.0,-0.37353515625,-0.35400390625,0.7340087890625,0.443115234375,-0.259765625,-0.90185546875,0.4794921875,-0.75,2.4375,-3.5625
1.52,-1.0,6.0,6.0,-2.0,0.0,2.0,1.0,0.0,-0.37371826171875,-0.35406494140625,0.73382568359375,0.4432373046875,-0.2666015625,-0.89453125,0.46533203125,0.875,0.0625,-1.875
1.525,1.0,-3.0,14.0,0.0,1.0,2.0,1.0,0.0,-0.37359619140625,-0.3538818359375,0.73382568359375,0.44354248046875,-0.2451171875,-0.8828125,0.47021484375,2.6875,0.125,-1.1875
1.53,1.0,8.0,21.0,10.0,2.0,1.0,3.0,2.0,-0.37359619140625,-0.35345458984375,0.73370361328125,0.44403076171875,-0.2451171875,-0.8681640625,0.486328125,2.1875,2.0,-1.8125
1.535,1.0,7.0,-3.0,-9.0,-1.0,-1.0,1.0,1.0,-0.3739013671875,-0.3531494140625,0.73345947265625,0.44439697265625,-0.251953125,-0.88037109375,0.48388671875,0.875,3.125,-1.5625
1.54,-7.0,-39.0,-43.0,-25.0,-3.0,0.0,0.0,-1.0,-0.374267578125,-0.35308837890625,0.73321533203125,0.444580078125,-0.2470703125,-0.87158203125,0.47216796875,-0.125,2.25,-0.8125
1.545,-1.0,-17.0,-3.0,-4.0,-3.0,-4.0,-2.0,-3.0,-0.3748779296875,-0.35302734375,0.73309326171875,0.44439697265625,-0.24755859375,-0.87255859375,0.47998046875,-1.1875,0.875,0.75
1.55,-2.0,-7.0,19.0,4.0,-1.0,-2.0,-5.0,-3.0,-0.3751220703125,-0.35333251953125,0.73272705078125,0.44439697265625,-0.23388671875,-0.87353515625,0.4716796875,-2.125,1.1875,-0.625
1.555,-1.0,-11.0,-3.0,-14.0,-3.0,5.0,-1.0,-1.0,-0.3753662109375,-0.35357666015625,0.732421875,0.44451904296875,-0.240234375,-0.88623046875,0.47314453125,-1.375,1.3125,-1.0
1.56,1.0,8.0,-6.0,-5.0,-2.0,-6.0,6.0,-1.0,-0.3753662109375,-0.353515625,0.73236083984375,0.44464111328125,-0.2314453125,-0.88134765625,0.474609375,1.125,0.75,-0.0625
1.565,3.0,4.0,8.0,-2.0,-1.0,2.0,2.0,0.0,-0.375244140625,-0.35302734375,0.7325439453125,0.44488525390625,-0.23486328125,-0.87060546875,0.490234375,2.3125,1.0625,0.4375
1.57,-2.0,-7.0,18.0,2.0,0.0,3.0,5.0,0.0,-0.37518310546875,-0.35272216796875,0.73248291015625,0.44525146484375,-0.2275390625,-0.857421875,0.4853515625,1.375,1.9375,-0.25
1.575,-4.0,3.0,6.0,-2.0,-5.0,-3.0,-4.0,-3.0,-0.37554931640625,-0.352783203125,0.7322998046875,0.44525146484375,-0.24462890625,-0.88134765625,0.48974609375,-2.375,0.8125,0.25
1.58,-6.0,-11.0,-17.0,-15.0,-7.0,-12.0,-6.0,-5.0,-0.37554931640625,-0.352783203125,0.73223876953125,0.44525146484375,-0.23583984375,-0.8896484375,0.47802734375,-0.5,0.5625,0.8125
1.585,11.0,11.0,-1.0,2.0,1.0,-6.0,-1.0,3.0,-0.3756103515625,-0.35260009765625,0.7322998046875,0.44537353515625,-0.2353515625,-0.8818359375,0.48388671875,1.125,1.1875,0.875
1.59,1.0,6.0,-13.0,0.0,-2.0,-4.0,-1.0,-3.0,-0.3758544921875,-0.3521728515625,0.7322998046875,0.44537353515625,-0.24462890625,-0.873046875,0.48974609375,0.5,2.1875,1.0625
1.595,-1.0,-1.0,-12.0,-18.0,-2.0,-11.0,-2.0,-2.0,-0.376220703125,-0.3515625,0.732177734375,0.44580078125,-0.23046875,-0.85986328125,0.50634765625,0.5,5.1875,0.8125
1.6,0.0,18.0,13.0,3.0,1.0,-3.0,-3.0,-3.0,-0.376953125,-0.350830078125,0.7318115234375,0.4464111328125,-0.2431640625,-0.8583984375,0.51123046875,-0.625,7.5,-0.625
1.605,1.0,2.0,2.0,3.0,0.0,6.0,6.0,-5.0,-0.3780517578125,-0.35076904296875,0.7313232421875,0.44635009765625,-0.25830078125,-0.8623046875,0.4921875,-4.75,5.3125,0.375
1.61,5.0,-11.0,2.0,4.0,-2.0,-7.0,-1.0,0.0,-0.37982177734375,-0.3511962890625,0.7305908203125,0.4456787109375,-0.25244140625,-0.86669921875,0.486328125,-10.0625,6.5625,2.9375
1.615,6.0,17.0,8.0,2.0,-1.0,-8.0,-2.0,-1.0,-0.38165283203125,-0.3516845703125,0.72930908203125,0.44580078125,-0.22998046875,-0.88232421875,0.498046875,-10.5,10.375,0.0625
1.62,-2.0,-5.0,-3.0,-4.0,0.0,15.0,9.0,-3.0,-0.3841552734375,-0.3519287109375,0.72747802734375,0.4464111328125,-0.234375,-0.8642578125,0.5,-12.125,16.25,-1.6875
1.625,-11.0,-9.0,-8.0,-15.0,-3.0,-3.0,0.0,5.0,-0.38800048828125,-0.35223388671875,0.72509765625,0.44677734375,-0.26025390625,-0.83740234375,0.4892578125,-17.9375,21.4375,-1.5625
1.63,16.0,11.0,2.0,0.0,2.0,14.0,10.0,4.0,-0.3924560546875,-0.35321044921875,0.722412109375,0.4464111328125,-0.28662109375,-0.8623046875,0.48095703125,-24.0,20.875,-0.8125
1.635,-4.0,-20.0,8.0,4.0,-3.0,-11.0,-6.0,-1.0
1.64,-50.0,-6.0,-6.0,-1.0,0.0,-1.0,-10.0,-12.0,-0.3968505859375,-0.35491943359375,0.719482421875,0.44586181640625,-0.27685546875,-0.876953125,0.4697265625,-27.625,19.25,-1.4375
1.645,-13.0,7.0,-4.0,0.0,-5.0,-9.0,4.0,3.0,-0.40252685546875,-0.357421875,0.71563720703125,0.44500732421875,-0.2861328125,-0.8623046875,0.42333984375,-34.9375,23.0,-2.125
1.65,14.0,0.0,-1.0,-3.0,-1.0,-4.0,-5.0,-1.0,-0.40765380859375,-0.36090087890625,0.71148681640625,0.4442138671875,-0.2607421875,-0.89990234375,0.4013671875,-36.8125,19.9375,-4.5625
1.655,22.0,-9.0,-2.0,3.0,1.0,-2.0,3.0,-15.0,-0.41748046875,-0.365478515625,0.7041015625,0.44305419921875,-0.26708984375,-0.9716796875,0.3876953125,-24.0625,22.3125,0.5
1.66,27.0,-9.0,-8.0,-2.0,-2.0,-3.0,10.0,20.0
1.665,19.0,-2.0,4.0,1.0,-3.0,-2.0,-5.0,-5.0,-0.4210205078125,-0.365234375,0.70159912109375,0.4439697265625,-0.28369140625,-0.96630859375,0.37548828125,-8.6875,22.1875,-1.5
1.67,-94.0,-16.0,-9.0,3.0,3.0,-6.0,1.0,-14.0,-0.42327880859375,-0.36346435546875,0.7000732421875,0.4456787109375,-0.29052734375,-0.93896484375,0.365234375,4.1875,20.125,-2.25
1.675,0.0,-4.0,7.0,-5.0,-3.0,8.0,2.0,37.0,-0.4249267578125,-0.3616943359375,0.69921875,0.44677734375,-0.298828125,-0.8720703125,0.3291015625,6.375,13.75,-1.0
1.68,12.0,-5.0,4.0,-1.0,-4.0,-1.0,11.0,22.0,-0.42645263671875,-0.3623046875,0.69818115234375,0.44659423828125,-0.2607421875,-0.92529296875,0.32666015625,-4.9375,6.0625,1.1875
1.685,-65.0,-5.0,-38.0,-3.0,0.0,18.0,5.0,-38.0,-0.42742919921875,-0.3609619140625,0.69873046875,0.44573974609375,-0.2724609375,-0.98583984375,0.3603515625,12.0,1.875,9.1875
1.69,-17.0,-3.0,-9.0,7.0,5.0,46.0,57.0,20.0,-0.4268798828125,-0.35791015625,0.7001953125,0.44659423828125,-0.29736328125,-0.9130859375,0.35009765625,21.25,2.5625,6.0625
1.695,93.0,14.0,12.0,2.0,-8.0,-50.0,-21.0,32.0,-0.42578125,-0.3538818359375,0.70196533203125,0.447998046875,-0.2451171875,-0.8876953125,0.35546875,13.0625,1.375,5.3125
1.7,92.0,-18.0,4.0,-10.0,-5.0,-16.0,-12.0,58.0,-0.42523193359375,-0.35247802734375,0.70343017578125,0.4473876953125,-0.26171875,-0.8671875,0.36962890625,9.5,-3.5625,9.5625
1.705,95.0,29.0,11.0,-4.0,0.0,47.0,9.0,49.0,-0.42449951171875,-0.3514404296875,0.7054443359375,0.4456787109375,-0.29541015625,-0.908203125,0.3740234375,8.1875,-9.1875,13.0625
1.71,27.0,-6.0,3.0,1.0,4.0,19.0,13.0,16.0,-0.42254638671875,-0.34991455078125,0.7081298828125,0.44451904296875,-0.3046875,-0.943359375,0.39013671875,16.25,-13.4375,11.875
1.715,-26.0,2.0,11.0,2.0,3.0,-11.0,3.0,46.0,-0.41986083984375,-0.34759521484375,0.71112060546875,0.44403076171875,-0.271484375,-0.8984375,0.3916015625,22.8125,-13.0625,11.625
1.72,35.0,-6.0,14.0,10.0,7.0,-8.0,41.0,-82.0,-0.41766357421875,-0.3450927734375,0.71429443359375,0.4429931640625,-0.26025390625,-0.88037109375,0.40087890625,20.5625,-11.625,15.8125
1.725,-78.0,11.0,-45.0,-12.0,-4.0,-36.0,-48.0,-40.0,-0.413818359375,-0.34063720703125,0.720947265625,0.43927001953125,-0.32275390625,-0.85546875,0.42822265625,16.0,-16.0,15.0
1.73,-1.0,8.0,-10.0,-18.0,-5.0,21.0,-7.0,43.0,-0.41131591796875,-0.3388671875,0.723876953125,0.43817138671875,-0.302734375,-0.82763671875,0.44091796875,15.3125,-14.9375,10.625
1.735,4.0,15.0,38.0,7.0,5.0,-9.0,-14.0,46.0,-0.4095458984375,-0.33782958984375,0.72589111328125,0.43731689453125,-0.3212890625,-0.82861328125,0.4560546875,8.9375,-11.5,5.8125
1.74,44.0,9.0,10.0,4.0,-5.0,-83.0,23.0,7.0
1.745,69.0,-2.0,18.0,5.0,9.0,6.0,-22.0,55.0,-0.40777587890625,-0.337158203125,0.72747802734375,0.436767578125,-0.30908203125,-0.8203125,0.46630859375,6.5,-10.125,3.125
1.75,-21.0,-52.0,-6.0,-13.0,-6.0,2.0,-21.0,-41.0,-0.40655517578125,-0.3370361328125,0.72869873046875,0.43597412109375,-0.314453125,-0.81982421875,0.48291015625,0.8125,-8.9375,3.0
1.755,-61.0,14.0,-12.0,-3.0,-6.0,-28.0,-45.0,53.0,-0.40570068359375,-0.337646484375,0.7293701171875,0.4351806640625,-0.30712890625,-0.8779296875,0.4814453125,-2.5625,-7.5,1.9375
1.76,-54.0,-12.0,0.0,-3.0,4.0,64.0,41.0,-16.0,-0.405029296875,-0.33831787109375,0.7298583984375,0.4344482421875,-0.2919921875,-0.86669921875,0.47216796875,-2.9375,-6.5,1.9375
1.765,68.0,-11.0,-39.0,-10.0,-9.0,10.0,-17.0,36.0,-0.40399169921875,-0.33843994140625,0.73046875,0.43426513671875,-0.33935546875,-0.83740234375,0.48779296875,-1.1875,-2.6875,-1.5
1.77,-14.0,-17.0,-9.0,-8.0,-6.0,-5.0,4.0,-50.0,-0.403564453125,-0.338623046875,0.73065185546875,0.434326171875,-0.3291015625,-0.8916015625,0.484375,-0.4375,-3.0625,-2.25
1.775,-26.0,-7.0,14.0,-16.0,-8.0,-16.0,9.0,-76.0,-0.4029541015625,-0.3392333984375,0.73065185546875,0.43438720703125,-0.2822265625,-0.837890625,0.4755859375,-3.0625,-2.875,-2.3125
1.78,-10.0,-30.0,0.0,3.0,4.0,6.0,7.0,0.0,-0.40301513671875,-0.340576171875,0.73004150390625,0.434326171875,-0.28173828125,-0.88134765625,0.4853515625,-8.5625,-0.6875,-2.875
1.785,-27.0,-30.0,-18.0,-5.0,3.0,9.0,-21.0,-7.0,-0.403076171875,-0.34088134765625,0.72967529296875,0.43463134765625,-0.30859375,-0.85546875,0.46533203125,-2.4375,0.9375,-3.6875
1.79,30.0,20.0,-1.0,9.0,-3.0,-7.0,13.0,8.0,-0.40380859375,-0.341796875,0.72894287109375,0.43450927734375,-0.31005859375,-0.86962890625,0.46728515625,-8.5,2.0,-2.8125
1.795,20.0,7.0,-9.0,-2.0,1.0,40.0,20.0,6.0,-0.40447998046875,-0.34259033203125,0.72796630859375,0.43475341796875,-0.2880859375,-0.88232421875,0.47705078125,-7.5625,4.6875,-3.0625
1.8,-17.0,-4.0,15.0,8.0,7.0,20.0,9.0,-14.0,-0.40533447265625,-0.34271240234375,0.72723388671875,0.43511962890625,-0.3173828125,-0.8720703125,0.46142578125,-4.25,5.3125,-3.1875
1.805,-19.0,19.0,-40.0,-12.0,5.0,10.0,22.0,-21.0,-0.40576171875,-0.34295654296875,0.72686767578125,0.4351806640625,-0.32861328125,-0.828125,0.45556640625,-4.625,1.375,-3.5
1.81,24.0,3.0,14.0,6.0,1.0,11.0,7.0,-9.0,-0.4061279296875,-0.3448486328125,0.72601318359375,0.43475341796875,-0.2939453125,-0.8330078125,0.4365234375,-12.5,-2.25,-5.0625
1.815,4.0,-9.0,-2.0,1.0,0.0,-9.0,1.0,7.0,-0.40740966796875,-0.34808349609375,0.72412109375,0.43414306640625,-0.263671875,-0.90087890625,0.447265625,-21.875,1.6875,-4.625
1.82,-3.0,-15.0,1.0,-4.0,8.0,17.0,17.0,11.0,-0.4090576171875,-0.3497314453125,0.722412109375,0.43408203125,-0.2744140625,-0.9189453125,0.45068359375,-14.5,7.625,-2.5625
1.825,-18.0,-25.0,-19.0,-11.0,-6.0,-19.0,-24.0,13.0,-0.410400390625,-0.35003662109375,0.72125244140625,0.43450927734375,-0.3115234375,-0.8818359375,0.4248046875,-5.9375,7.75,-3.75
1.83,-2.0,-5.0,-4.0,-18.0,-6.0,-14.0,-1.0,-2.0,-0.41119384765625,-0.3505859375,0.72027587890625,0.4349365234375,-0.3095703125,-0.8544921875,0.42138671875,-5.625,4.375,-5.75
1.835,-11.0,7.0,1.0,5.0,7.0,1.0,2.0,-6.0,-0.41204833984375,-0.35211181640625,0.7191162109375,0.43487548828125,-0.28955078125,-0.86279296875,0.45166015625,-13.5,3.1875,-4.75
1.84,-4.0,9.0,10.0,15.0,3.0,5.0,0.0,14.0,-0.41351318359375,-0.3538818359375,0.71759033203125,0.4345703125,-0.2685546875,-0.95068359375,0.40966796875,-12.625,4.875,-1.0625
1.845,-6.0,-6.0,-11.0,-27.0,-22.0,-9.0,-7.0,0.0,-0.41485595703125,-0.354248046875,0.7166748046875,0.43450927734375,-0.27294921875,-0.9267578125,0.4091796875,-5.625,7.1875,1.75
1.85,-7.0,7.0,0.0,0.0,-7.0,-10.0,-6.0,-10.0,-0.41607666015625,-0.354736328125,0.7161865234375,0.4337158203125,-0.3310546875,-0.86767578125,0.380859375,-6.625,1.6875,0.8125
1.855,-20.0,0.0,-22.0,5.0,8.0,3.0,-4.0,11.0,-0.416259765625,-0.3558349609375,0.71600341796875,0.432861328125,-0.30810546875,-0.87060546875,0.4013671875,-7.4375,-3.8125,-0.4375
1.86,-1.0,-14.0,0.0,-11.0,-6.0,-1.0,-1.0,1.0,-0.41668701171875,-0.3575439453125,0.71527099609375,0.43231201171875,-0.29541015625,-0.90869140625,0.4130859375,-11.125,-1.75,-2.5625
1.865,5.0,2.0,2.0,-12.0,-9.0,-1.0,0.0,-2.0,-0.41748046875,-0.35919189453125,0.71417236328125,0.43194580078125,-0.28369140625,-0.9521484375,0.4140625,-10.875,1.375,-1.8125
1.87,19.0,6.0,20.0,6.0,-3.0,0.0,-3.0,-13.0,-0.4176025390625,-0.3602294921875,0.7139892578125,0.43133544921875,-0.2978515625,-0.8876953125,0.37744140625,-2.125,-4.125,-0.3125
1.875,-11.0,-14.0,-18.0,5.0,-4.0,1.0,-1.0,-7.0
1.88,6.0,-4.0,4.0,7.0,-4.0,-7.0,-1.0,1.0,-0.41705322265625,-0.360595703125,0.7144775390625,0.4307861328125,-0.30615234375,-0.90966796875,0.369140625,1.9375,-6.4375,1.0625
1.885,-14.0,0.0,7.0,-2.0,5.0,1.0,1.0,7.0,-0.4163818359375,-0.36212158203125,0.71490478515625,0.4293212890625,-0.271484375,-0.90966796875,0.3994140625,-2.625,-5.5,1.6875
1.89,0.0,17.0,-49.0,-28.0,-13.0,-4.0,-2.0,0.0
1.895,3.0,12.0,33.0,20.0,8.0,5.0,1.0,-5.0,-0.4154052734375,-0.3621826171875,0.71588134765625,0.42864990234375,-0.3037109375,-0.9423828125,0.4072265625,3.4375,-8.1875,3.1875
1.9,-9.0,-51.0,26.0,14.0,1.0,-3.0,-1.0,-2.0,-0.41143798828125,-0.361083984375,0.71954345703125,0.42724609375,-0.28173828125,-0.93212890625,0.373046875,16.4375,-14.3125,6.1875
1.905
1.91,8.0,27.0,3.0,6.0,-5.0,-1.0,2.0,4.0,-0.40826416015625,-0.35870361328125,0.72265625,0.42706298828125,-0.28515625,-0.8837890625,0.400390625,24.6875,-14.875,7.75
1.915,-1.0,-5.0,-28.0,-43.0,-14.0,-6.0,-3.0,-3.0,-0.4056396484375,-0.3565673828125,0.72552490234375,0.426513671875,-0.32080078125,-0.8759765625,0.4013671875,20.875,-15.0625,6.875
1.92,0.0,-8.0,-9.0,8.0,5.0,5.0,1.0,0.0,-0.40338134765625,-0.3558349609375,0.72747802734375,0.42596435546875,-0.2978515625,-0.88232421875,0.38916015625,13.75,-14.1875,3.75
1.925,-4.0,-15.0,-31.0,-13.0,0.0,-2.0,-2.0,-2.0,-0.40087890625,-0.3553466796875,0.72955322265625,0.4251708984375,-0.287109375,-0.935546875,0.41552734375,13.625,-16.0,5.3125
1.93,-3.0,-13.0,15.0,-4.0,-6.0,-5.0,-4.0,-5.0,-0.39794921875,-0.35333251953125,0.732177734375,0.425048828125,-0.2861328125,-0.91650390625,0.45556640625,21.0,-13.625,6.5625
1.935,0.0,15.0,10.0,-5.0,-7.0,-1.0,-1.0,0.0,-0.3941650390625,-0.3492431640625,0.73553466796875,0.42620849609375,-0.31591796875,-0.82763671875,0.4462890625,35.125,-12.125,2.6875
1.94,-8.0,-11.0,-5.0,2.0,-1.0,-4.0,-3.0,-3.0,-0.3905029296875,-0.3465576171875,0.73834228515625,0.4268798828125,-0.3017578125,-0.8095703125,0.453125,26.125,-14.625,0.6875
1.945,2.0,7.0,-9.0,-27.0,-2.0,1.0,1.0,3.0,-0.3880615234375,-0.3460693359375,0.73992919921875,0.4267578125,-0.28564453125,-0.85205078125,0.46826171875,10.6875,-13.0,0.5
1.95,1.0,0.0,11.0,33.0,8.0,3.0,0.0,-1.0,-0.38543701171875,-0.3463134765625,0.7410888671875,0.42694091796875,-0.27392578125,-0.9052734375,0.46923828125,9.5625,-13.75,-2.4375
1.955,-1.0,-7.0,-19.0,-3.0,-1.0,-1.0,1.0,1.0,-0.3817138671875,-0.3446044921875,0.74322509765625,0.42803955078125,-0.29296875,-0.88427734375,0.46875,24.875,-14.9375,-3.4375
1.96,3.0,16.0,56.0,17.0,7.0,3.0,0.0,1.0,-0.376953125,-0.34185791015625,0.745849609375,0.4298095703125,-0.28125,-0.84033203125,0.498046875,31.6875,-16.0,-5.3125
1.965,-1.0,-1.0,6.0,14.0,1.0,0.0,-1.0,-1.0,-0.372314453125,-0.339599609375,0.74761962890625,0.43255615234375,-0.244140625,-0.78662109375,0.51171875,27.75,-11.625,-11.125
1.97,-3.0,0.0,-2.0,-11.0,2.0,-3.0,-4.0,-5.0,-0.36859130859375,-0.33892822265625,0.7484130859375,0.4349365234375,-0.2451171875,-0.78515625,0.50244140625,16.875,-10.6875,-14.25
1.975,4.0,-6.0,16.0,31.0,-1.0,-2.0,-2.0,-4.0,-0.3619384765625,-0.33880615234375,0.7498779296875,0.43792724609375,-0.1845703125,-0.79443359375,0.56640625,4.6875,-8.1875,-6.8125
1.98
1.985,4.0,17.0,-2.0,-20.0,-8.0,2.0,1.0,1.0,-0.36126708984375,-0.34088134765625,0.748046875,0.44012451171875,-0.23388671875,-0.8154296875,0.55029296875,-11.5,3.9375,-9.0
1.99,3.0,-12.0,-31.0,-18.0,-7.0,-2.0,0.0,-1.0,-0.3623046875,-0.34344482421875,0.74658203125,0.43975830078125,-0.283203125,-0.83740234375,0.52197265625,-18.3125,-1.125,-7.9375
1.995,3.0,5.0,0.0,2.0,-4.0,-1.0,0.0,-2.0
2.0,2.0,10.0,4.0,-4.0,-1.0,-13.0,-7.0,-2.0,-0.36248779296875,-0.34625244140625,0.7454833984375,0.43927001953125,-0.2578125,-0.8779296875,0.5,-14.5,-5.6875,-6.9375
2.005,7.0,0.0,-20.0,0.0,-4.0,1.0,0.0,-1.0,-0.361572265625,-0.34783935546875,0.7447509765625,0.44000244140625,-0.203125,-0.8876953125,0.53271484375,-4.5,-3.375,-7.625
2.01,2.0,3.0,22.0,-12.0,1.0,-5.0,-2.0,-4.0,-0.36065673828125,-0.348388671875,0.74371337890625,0.442138671875,-0.18505859375,-0.8876953125,0.54345703125,1.3125,3.375,-11.25
2.015,0.0,-10.0,-26.0,-5.0,-2.0,-5.0,-3.0,2.0,-0.36053466796875,-0.3486328125,0.7421875,0.44451904296875,-0.20458984375,-0.876953125,0.5146484375,1.25,7.625,-13.0
2.02,-6.0,-1.0,2.0,18.0,7.0,4.0,1.0,0.0,-0.360595703125,-0.3482666015625,0.74127197265625,0.4462890625,-0.236328125,-0.84130859375,0.52099609375,2.0,6.75,-9.5625
2.025,-6.0,-6.0,-6.0,3.0,-1.0,3.0,-1.0,-3.0,-0.36102294921875,-0.34869384765625,0.74102783203125,0.446044921875,-0.279296875,-0.83349609375,0.486328125,-3.75,-1.375,-3.0625
2.03,3.0,10.0,24.0,4.0,4.0,5.0,5.0,7.0,-0.36187744140625,-0.35107421875,0.74029541015625,0.4447021484375,-0.24365234375,-0.88720703125,0.48876953125,-14.8125,-4.3125,0.125
2.035,-9.0,0.0,-36.0,-4.0,-5.0,-3.0,-1.0,-3.0,-0.36285400390625,-0.353515625,0.739013671875,0.444091796875,-0.212890625,-0.9365234375,0.49560546875,-14.25,-0.3125,-1.8125
2.04,-4.0,0.0,18.0,4.0,1.0,-2.0,-2.0,-2.0,-0.36346435546875,-0.3541259765625,0.73822021484375,0.44439697265625,-0.236328125,-0.95263671875,0.4931640625,-1.625,2.6875,-2.5
2.045,3.0,-6.0,8.0,1.0,3.0,0.0,-2.0,0.0,-0.3631591796875,-0.35272216796875,0.7386474609375,0.445068359375,-0.2578125,-0.908203125,0.49365234375,10.625,1.75,-0.875
2.05,-1.0,1.0,2.0,3.0,-6.0,-5.0,-3.0,-1.0,-0.362548828125,-0.35040283203125,0.7396240234375,0.44573974609375,-0.2353515625,-0.81201171875,0.51123046875,-0.0625,1.0,0.125
2.055,-3.0,24.0,-1.0,-21.0,-3.0,-1.0,0.0,1.0
2.06,-14.0,1.0,-21.0,4.0,3.0,1.0,0.0,-8.0,-0.36376953125,-0.3514404296875,0.73907470703125,0.44482421875,-0.24951171875,-0.8564453125,0.50439453125,-11.0625,1.25,1.5
2.065,1.0,10.0,15.0,6.0,-1.0,-1.0,0.0,-2.0,-0.36553955078125,-0.35296630859375,0.7381591796875,0.4437255859375,-0.22607421875,-0.900390625,0.50146484375,-1.75,2.375,1.875
2.07,4.0,5.0,10.0,-4.0,-4.0,-2.0,-2.0,-1.0
2.075,-2.0,-17.0,-9.0,15.0,3.0,-1.0,1.0,1.0,-0.36578369140625,-0.35205078125,0.73834228515625,0.44390869140625,-0.2392578125,-0.8740234375,0.50390625,3.6875,3.125,1.6875
2.08,-17.0,-5.0,-2.0,0.0,-1.0,0.0,0.0,-8.0,-0.36639404296875,-0.35089111328125,0.7386474609375,0.44384765625,-0.23681640625,-0.853515625,0.4912109375,0.5,1.875,2.1875
2.085,3.0,2.0,-7.0,-6.0,-1.0,-1.0,-1.0,-2.0,-0.36669921875,-0.3505859375,0.73870849609375,0.4437255859375,-0.22802734375,-0.84765625,0.50341796875,-0.5,2.0,2.4375
2.09,10.0,-2.0,-15.0,0.0,0.0,1.0,-1.0,-1.0
2.095,6.0,-6.0,0.0,-6.0,-2.0,-1.0,1.0,6.0,-0.3673095703125,-0.3505859375,0.738525390625,0.4434814453125,-0.224609375,-0.85400390625,0.49755859375,-3.125,2.875,2.125
2.1,4.0,-6.0,2.0,15.0,0.0,-1.0,-1.0,1.0,-0.36822509765625,-0.35107421875,0.73809814453125,0.443115234375,-0.23291015625,-0.86181640625,0.50244140625,-6.3125,3.0,1.5
2.105,1.0,-2.0,-10.0,-2.0,0.0,1.0,-1.0,1.0,-0.36907958984375,-0.3514404296875,0.73760986328125,0.44293212890625,-0.2265625,-0.873046875,0.50244140625,-5.5625,3.9375,1.1875
2.11,6.0,-7.0,-8.0,-6.0,1.0,-1.0,-3.0,1.0,-0.37005615234375,-0.3511962890625,0.73724365234375,0.44293212890625,-0.2333984375,-0.8505859375,0.48876953125,-2.8125,5.6875,1.875
2.115,14.0,-3.0,-8.0,-1.0,-3.0,-6.0,-7.0,6.0,-0.37213134765625,-0.35137939453125,0.73638916015625,0.4425048828125,-0.24609375,-0.85400390625,0.4892578125,-6.5625,3.375,1.375
2.12,-34.0,-2.0,7.0,0.0,-2.0,-5.0,-1.0,1.0,-0.37298583984375,-0.35211181640625,0.735595703125,0.44244384765625,-0.22900390625,-0.876953125,0.50146484375,-7.875,4.3125,-0.625
2.125,9.0,3.0,8.0,0.0,-2.0,-1.0,-2.0,7.0,-0.37371826171875,-0.35211181640625,0.73486328125,0.44305419921875,-0.224609375,-0.87548828125,0.505859375,-3.0625,6.875,-1.625
2.13,-23.0,-6.0,12.0,4.0,-4.0,-5.0,-8.0,-13.0,-0.37506103515625,-0.3511962890625,0.7340087890625,0.44403076171875,-0.22265625,-0.8486328125,0.515625,-1.9375,12.625,-0.8125
2.135,22.0,3.0,2.0,-3.0,-4.0,1.0,2.0,-8.0,-0.37713623046875,-0.35040283203125,0.73284912109375,0.44488525390625,-0.240234375,-0.8505859375,0.5546875,-7.4375,16.75,-0.625
2.14,8.0,4.0,16.0,-1.0,-2.0,-1.0,-4.0,-11.0,-0.3807373046875,-0.3511962890625,0.73046875,0.445068359375,-0.27783203125,-0.8525390625,0.49853515625,-19.25,17.9375,-3.25
2.145,2.0,5.0,4.0,3.0,3.0,-1.0,1.0,6.0,-0.383544921875,-0.35272216796875,0.7283935546875,0.44482421875,-0.2666015625,-0.86083984375,0.4482421875,-17.375,10.875,-3.25
2.15,5.0,-5.0,-1.0,-2.0,-3.0,-1.0,-11.0,6.0,-0.3865966796875,-0.35491943359375,0.7265625,0.4434814453125,-0.2705078125,-0.890625,0.41455078125,-20.75,7.3125,1.3125
2.155,-3.0,-2.0,5.0,0.0,-2.0,-1.0,3.0,1.0,-0.38983154296875,-0.357177734375,0.724853515625,0.44158935546875,-0.26708984375,-0.95556640625,0.443359375,-22.5,7.125,5.625
2.16,26.0,-3.0,-2.0,-2.0,-5.0,-5.0,-2.0,17.0,-0.391845703125,-0.357666015625,0.72393798828125,0.44097900390625,-0.27587890625,-0.9912109375,0.4609375,-7.875,7.4375,4.125
2.165
2.17,-10.0,-4.0,-6.0,2.0,3.0,2.0,5.0,11.0,-0.39312744140625,-0.35400390625,0.7239990234375,0.442626953125,-0.2744140625,-0.9013671875,0.43701171875,14.375,6.625,2.75
2.175,-29.0,13.0,2.0,-9.0,-8.0,-23.0,-10.0,-37.0,-0.39337158203125,-0.352294921875,0.72467041015625,0.44268798828125,-0.2705078125,-0.86767578125,0.4140625,9.9375,2.6875,5.125
2.18,32.0,20.0,19.0,2.0,-2.0,-3.0,2.0,8.0,-0.39422607421875,-0.35174560546875,0.72528076171875,0.44134521484375,-0.27587890625,-0.91064453125,0.44775390625,-0.5625,0.625,10.3125
2.185,23.0,-15.0,10.0,5.0,2.0,-6.0,-5.0,7.0,-0.39556884765625,-0.35125732421875,0.725830078125,0.43963623046875,-0.27490234375,-0.90234375,0.42919921875,-2.3125,1.625,12.25
2.19,5.0,-6.0,-8.0,-6.0,-5.0,-15.0,-30.0,8.0,-0.397216796875,-0.35064697265625,0.7261962890625,0.4381103515625,-0.2880859375,-0.919921875,0.45068359375,-3.125,4.1875,12.0
2.195,46.0,-6.0,16.0,6.0,-1.0,1.0,-19.0,-11.0,-0.397705078125,-0.3497314453125,0.7274169921875,0.436279296875,-0.3076171875,-0.93603515625,0.40234375,5.625,-4.0625,13.1875
2.2,-50.0,-21.0,-20.0,6.0,13.0,67.0,30.0,34.0,-0.396728515625,-0.34747314453125,0.7296142578125,0.435302734375,-0.27587890625,-0.91259765625,0.42041015625,17.1875,-5.6875,13.875
2.205,89.0,30.0,30.0,8.0,-3.0,-18.0,7.0,-4.0,-0.395751953125,-0.34478759765625,0.73187255859375,0.4345703125,-0.27734375,-0.9228515625,0.46435546875,17.9375,-3.5625,14.5
2.21,-30.0,-18.0,-12.0,-3.0,-4.0,-17.0,-12.0,-16.0,-0.394287109375,-0.34112548828125,0.7344970703125,0.43438720703125,-0.2841796875,-0.90966796875,0.44482421875,26.4375,-3.6875,14.125
2.215,16.0,-2.0,-5.0,-11.0,-5.0,0.0,-68.0,12.0,-0.38909912109375,-0.33404541015625,0.74169921875,0.4322509765625,-0.2626953125,-0.810546875,0.45263671875,24.4375,-14.9375,20.4375
2.22,22.0,-4.0,-37.0,-18.0,-1.0,57.0,-16.0,42.0,-0.38616943359375,-0.3309326171875,0.74591064453125,0.43011474609375,-0.2998046875,-0.8349609375,0.4794921875,24.125,-18.5625,20.3125
2.225,-3.0,-33.0,-33.0,-12.0,0.0,-12.0,-26.0,-113.0,-0.38311767578125,-0.328125,0.7496337890625,0.428466796875,-0.29638671875,-0.8564453125,0.490234375,24.125,-17.5625,17.0625
2.23,-24.0,-4.0,-3.0,9.0,1.0,24.0,25.0,-22.0,-0.37933349609375,-0.32464599609375,0.75360107421875,0.42755126953125,-0.25341796875,-0.81982421875,0.513671875,29.1875,-16.625,16.8125
2.235,-29.0,13.0,-5.0,-3.0,-7.0,-17.0,-19.0,29.0,-0.37554931640625,-0.3211669921875,0.75762939453125,0.4263916015625,-0.25341796875,-0.80419921875,0.51171875,29.125,-17.0625,17.5625
2.24,-27.0,10.0,14.0,6.0,1.0,17.0,46.0,-4.0,-0.369384765625,-0.3153076171875,0.7655029296875,0.4219970703125,-0.28662109375,-0.80078125,0.5244140625,19.5625,-18.0625,21.75
2.245,8.0,26.0,12.0,-1.0,1.0,40.0,7.0,23.0,-0.3671875,-0.313232421875,0.76873779296875,0.419677734375,-0.28271484375,-0.787109375,0.54541015625,14.6875,-14.5625,19.5
2.25,-15.0,1.0,-7.0,-8.0,-7.0,25.0,27.0,-28.0,-0.365234375,-0.310791015625,0.77130126953125,0.41839599609375,-0.3154296875,-0.71728515625,0.54638671875,14.5,-10.8125,11.1875
2.255,-71.0,-11.0,-33.0,-12.0,-1.0,-17.0,-11.0,39.0,-0.363525390625,-0.30914306640625,0.77325439453125,0.41748046875,-0.35693359375,-0.68212890625,0.54931640625,8.75,-11.1875,4.1875
2.26,-47.0,4.0,-19.0,-3.0,6.0,73.0,-30.0,9.0,-0.36279296875,-0.31048583984375,0.77386474609375,0.41607666015625,-0.33251953125,-0.71630859375,0.55908203125,-9.4375,-11.1875,0.25
2.265,18.0,6.0,-5.0,-12.0,-9.0,-47.0,-25.0,32.0,-0.36260986328125,-0.31353759765625,0.77325439453125,0.41510009765625,-0.24951171875,-0.787109375,0.57470703125,-18.3125,-6.0625,-1.0
2.27,-12.0,-23.0,-34.0,-7.0,7.0,70.0,20.0,1.0,-0.36383056640625,-0.315673828125,0.77197265625,0.41473388671875,-0.3115234375,-0.86572265625,0.58154296875,-15.1875,3.0,-2.875
2.275,-35.0,0.0,33.0,21.0,7.0,1.0,13.0,44.0,-0.36517333984375,-0.31585693359375,0.77069091796875,0.415771484375,-0.3310546875,-0.82470703125,0.57666015625,-1.0625,3.625,-3.8125
2.28,29.0,-5.0,-14.0,-13.0,-3.0,-2.0,9.0,14.0,-0.36505126953125,-0.315185546875,0.77081298828125,0.41619873046875,-0.32763671875,-0.80908203125,0.57568359375,2.6875,1.5,-1.4375
2.285,8.0,-13.0,-2.0,13.0,1.0,-20.0,-17.0,-4.0
2.29,-23.0,-19.0,15.0,11.0,2.0,-6.0,-1.0,-52.0,-0.36529541015625,-0.31524658203125,0.7706298828125,0.416259765625,-0.337890625,-0.82080078125,0.5478515625,-0.5625,0.1875,-1.75
2.295,-10.0,6.0,-3.0,-24.0,-13.0,-41.0,-50.0,-7.0,-0.365966796875,-0.3160400390625,0.7696533203125,0.41693115234375,-0.28515625,-0.8095703125,0.55078125,-2.4375,3.5,-2.1875
2.3,-5.0,-10.0,-4.0,-14.0,-11.0,-28.0,-3.0,-3.0
2.305,-17.0,-2.0,-14.0,-5.0,1.0,13.0,10.0,8.0,-0.36688232421875,-0.31597900390625,0.76910400390625,0.4171142578125,-0.314453125,-0.7841796875,0.537109375,-3.375,5.25,-1.25
2.31,10.0,-12.0,9.0,-6.0,-3.0,2.0,4.0,5.0,-0.36846923828125,-0.3175048828125,0.767333984375,0.4178466796875,-0.31005859375,-0.76318359375,0.53955078125,-11.3125,3.125,-7.125
2.315,-6.0,2.0,-31.0,-7.0,-2.0,-6.0,5.0,2.0,-0.37042236328125,-0.320556640625,0.765380859375,0.4173583984375,-0.2802734375,-0.82763671875,0.53125,-22.25,5.125,-3.75
2.32,-6.0,8.0,-9.0,-6.0,-3.0,-1.0,-3.0,-2.0
2.325,-3.0,12.0,22.0,0.0,-16.0,-8.0,-2.0,6.0,-0.37506103515625,-0.32440185546875,0.76123046875,0.41778564453125,-0.33154296875,-0.79736328125,0.52099609375,-15.3125,11.0,-8.0
2.33,-7.0,-13.0,-13.0,-10.0,3.0,4.0,5.0,3.0,-0.37646484375,-0.32586669921875,0.75946044921875,0.4185791015625,-0.34375,-0.76611328125,0.52490234375,-14.1875,6.5,-11.875
2.335,-3.0,1.0,3.0,7.0,0.0,-8.0,-2.0,0.0,-0.378173828125,-0.3297119140625,0.75714111328125,0.41827392578125,-0.31005859375,-0.8271484375,0.50341796875,-25.9375,2.5625,-9.75
2.34,7.0,1.0,-4.0,-2.0,5.0,7.0,1.0,2.0,-0.38189697265625,-0.33648681640625,0.7525634765625,0.41778564453125,-0.306640625,-0.92431640625,0.5146484375,-16.4375,7.3125,-4.875
2.345,6.0,0.0,-19.0,-30.0,-6.0,-2.0,-1.0,-2.0,-0.3828125,-0.337158203125,0.75140380859375,0.41851806640625,-0.31591796875,-0.8740234375,0.48779296875,-4.875,5.8125,-6.3125
2.35,0.0,-7.0,-8.0,-10.0,-9.0,-3.0,-3.0,-1.0,-0.38330078125,-0.3385009765625,0.75030517578125,0.41900634765625,-0.30126953125,-0.8564453125,0.4677734375,-6.375,1.625,-6.375
2.355,0.0,-6.0,-5.0,-4.0,-1.0,1.0,1.0,1.0,-0.38287353515625,-0.33929443359375,0.74993896484375,0.41937255859375,-0.29736328125,-0.86328125,0.46435546875,-0.625,-2.5,-4.9375
2.36,5.0,-1.0,-14.0,-14.0,-3.0,-2.0,-3.0,-3.0,-0.38214111328125,-0.34027099609375,0.7496337890625,0.4197998046875,-0.30029296875,-0.8759765625,0.45458984375,0.625,-4.9375,-6.0
2.365,2.0,14.0,4.0,23.0,15.0,3.0,-2.0,-2.0,-0.38134765625,-0.34124755859375,0.74920654296875,0.42047119140625,-0.27978515625,-0.85888671875,0.4619140625,-0.125,-3.875,-6.9375
2.37,-7.0,-13.0,-13.0,-10.0,3.0,4.0,5.0,3.0,-0.37646484375,-0.32586669921875,0.75946044921875,0.4185791015625,-0.34375,-0.76611328125,0.52490234375,-14.1875,6.5,-11.875
2.375,5.0,23.0,38.0,5.0,-2.0,1.0,3.0,4.0,-0.3797607421875,-0.3421630859375,0.749267578125,0.42108154296875,-0.3125,-0.853515625,0.46337890625,2.8125,-6.875,-3.625
2.38,-1.0,-2.0,-27.0,-14.0,-7.0,0.0,-2.0,-2.0,-0.37872314453125,-0.34320068359375,0.749267578125,0.42108154296875,-0.28857421875,-0.85107421875,0.45361328125,-0.3125,-7.75,-4.4375
2.385,1.0,-3.0,-21.0,-26.0,-15.0,-5.0,1.0,1.0,-0.3775634765625,-0.34466552734375,0.749267578125,0.42095947265625,-0.2646484375,-0.87939453125,0.43994140625,0.0,-9.25,-3.75
2.39,-5.0,-4.0,-21.0,-1.0,-4.0,-1.0,-1.0,-1.0,-0.37603759765625,-0.3448486328125,0.7498779296875,0.421142578125,-0.2802734375,-0.87451171875,0.45654296875,7.1875,-8.625,-2.3125
2.395,0.0,15.0,8.0,1.0,19.0,4.0,-2.0,-2.0,-0.37255859375,-0.34405517578125,0.751953125,0.42120361328125,-0.30419921875,-0.8642578125,0.46875,9.875,-10.9375,-1.875
2.4,-2.0,-1.0,19.0,2.0,1.0,-4.0,-3.0,-2.0
2.405,1.0,3.0,27.0,5.0,8.0,5.0,3.0,1.0,-0.37042236328125,-0.34423828125,0.7530517578125,0.4208984375,-0.29150390625,-0.85009765625,0.470703125,7.375,-14.0,-1.5625
2.41,-2.0,2.0,-6.0,13.0,14.0,3.0,-1.0,-1.0,-0.36517333984375,-0.343994140625,0.7557373046875,0.42083740234375,-0.28466796875,-0.85888671875,0.5078125,12.125,-15.6875,-2.4375
2.415,-4.0,-11.0,-28.0,-53.0,-39.0,-9.0,-3.0,-4.0
2.42,2.0,-7.0,44.0,27.0,10.0,0.0,0.0,0.0,-0.36212158203125,-0.34368896484375,0.7572021484375,0.42108154296875,-0.2783203125,-0.87158203125,0.52783203125,12.1875,-15.3125,-3.125
2.425,1.0,7.0,-10.0,11.0,-1.0,1.0,0.0,1.0,-0.35687255859375,-0.34381103515625,0.75958251953125,0.4212646484375,-0.2490234375,-0.84912109375,0.5537109375,6.5,-11.6875,-1.75
2.43,-1.0,15.0,26.0,28.0,20.0,2.0,-1.0,-1.0,-0.3543701171875,-0.34246826171875,0.7608642578125,0.42218017578125,-0.24267578125,-0.83349609375,0.5556640625,14.0625,-7.8125,-2.375
2.435,-3.0,-15.0,-26.0,17.0,9.0,4.0,-3.0,-1.0,-0.3516845703125,-0.34014892578125,0.7620849609375,0.42401123046875,-0.2705078125,-0.80029296875,0.56884765625,19.3125,-4.9375,-7.0625
2.44,-3.0,-1.0,-5.0,-9.0,-7.0,-4.0,-1.0,-2.0,-0.35003662109375,-0.33917236328125,0.761962890625,0.42645263671875,-0.24560546875,-0.771484375,0.58837890625,7.625,1.5,-13.0625
2.445,2.0,2.0,-52.0,-23.0,-1.0,2.0,1.0,1.0,-0.34912109375,-0.34039306640625,0.76055908203125,0.4287109375,-0.2236328125,-0.83056640625,0.572265625,-3.5625,1.4375,-16.6875
2.45,2.0,-7.0,7.0,-12.0,-8.0,-3.0,2.0,1.0,-0.34796142578125,-0.34075927734375,0.75958251953125,0.43109130859375,-0.20068359375,-0.83056640625,0.5595703125,2.5625,2.3125,-13.4375
2.455,-4.0,-12.0,-2.0,11.0,-3.0,-2.0,0.0,-2.0,-0.34674072265625,-0.34027099609375,0.759033203125,0.433349609375,-0.22021484375,-0.82763671875,0.5400390625,8.5625,2.0625,-11.875
2.46,-2.0,-4.0,-12.0,-10.0,-16.0,-8.0,-2.0,-1.0,-0.3455810546875,-0.340087890625,0.75836181640625,0.43560791015625,-0.20849609375,-0.7822265625,0.55810546875,3.5625,2.25,-12.8125
2.465,-1.0,2.0,-25.0,-7.0,-2.0,-1.0,-3.0,0.0,-0.34503173828125,-0.3414306640625,0.75677490234375,0.437744140625,-0.1826171875,-0.80517578125,0.5791015625,-6.5625,4.0,-14.9375
2.47,8.0,5.0,4.0,-10.0,-2.0,-1.0,0.0,0.0,-0.34429931640625,-0.34417724609375,0.753662109375,0.44158935546875,-0.20556640625,-0.83984375,0.556640625,-7.1875,3.0,-13.9375
2.475,-18.0,3.0,28.0,5.0,-3.0,-6.0,-4.0,-11.0,-0.34429931640625,-0.34521484375,0.75201416015625,0.4434814453125,-0.197265625,-0.82421875,0.548828125,-5.5625,5.25,-13.5625
2.48,6.0,19.0,35.0,28.0,4.0,0.0,-1.0,1.0,-0.34344482421875,-0.34539794921875,0.750732421875,0.44622802734375,-0.15771484375,-0.81396484375,0.587890625,0.1875,6.5625,-14.625
2.485,4.0,2.0,29.0,11.0,4.0,0.0,1.0,0.0,-0.3427734375,-0.34552001953125,0.749267578125,0.44915771484375,-0.1748046875,-0.7802734375,0.56201171875,0.1875,7.0,-16.9375
2.49,-10.0,-12.0,-16.0,-11.0,-1.0,-2.0,-5.0,-5.0,-0.3475341796875,-0.35418701171875,0.7432861328125,0.44866943359375,-0.21728515625,-0.9072265625,0.45556640625,-33.125,2.4375,-8.6875
2.495,1.0,3.0,15.0,22.0,9.0,1.0,1.0,-4.0,-0.349365234375,-0.3580322265625,0.74072265625,0.44842529296875,-0.201171875,-0.97021484375,0.466796875,-20.4375,1.75,-7.8125
2.5,-6.0,-14.0,-8.0,-2.0,-3.0,-2.0,-3.0,-3.0
2.505,-10.0,-8.0,-7.0,-2.0,0.0,0.0,0.0,-4.0,-0.3497314453125,-0.35888671875,0.73895263671875,0.4503173828125,-0.19921875,-0.9697265625,0.50244140625,-0.4375,6.75,-12.25
2.51,-5.0,-2.0,-18.0,-16.0,-3.0,-3.0,-2.0,-2.0,-0.34918212890625,-0.357177734375,0.73822021484375,0.4532470703125,-0.203125,-0.90234375,0.51904296875,13.75,9.3125,-11.75
2.515,-6.0,-28.0,15.0,12.0,0.0,0.0,-1.0,-7.0,-0.3492431640625,-0.35528564453125,0.73760986328125,0.45574951171875,-0.20068359375,-0.8359375,0.50927734375,11.125,11.375,-8.9375
2.52,0.0,-14.0,-5.0,-16.0,-3.0,-1.0,0.0,1.0,-0.35040283203125,-0.35498046875,0.736572265625,0.45672607421875,-0.23095703125,-0.80322265625,0.50439453125,-3.3125,8.25,-6.9375
2.525,-9.0,11.0,-7.0,16.0,6.0,-1.0,-1.0,1.0,-0.35211181640625,-0.35687255859375,0.73516845703125,0.456298828125,-0.21630859375,-0.8251953125,0.51708984375,-18.375,3.75,-3.75
2.53,3.0,-14.0,-21.0,12.0,17.0,3.0,-1.0,0.0,-0.35406494140625,-0.35980224609375,0.7332763671875,0.45550537109375,-0.19384765625,-0.88330078125,0.52392578125,-23.625,3.0625,-3.3125
2.535,-14.0,-22.0,-12.0,-12.0,-1.0,-3.0,0.0,1.0,-0.35577392578125,-0.36224365234375,0.73101806640625,0.45587158203125,-0.21240234375,-0.91943359375,0.50634765625,-2.1875,1.0625,-4.6875
2.54,-2.0,-4.0,-1.0,-5.0,-4.0,-4.0,-3.0,-1.0,-0.35516357421875,-0.36175537109375,0.7310791015625,0.4566650390625,-0.1884765625,-0.884765625,0.517578125,4.5625,0.75,-3.0625
2.545,-8.0,-6.0,-3.0,3.0,-2.0,-4.0,-3.0,-4.0,-0.354736328125,-0.361328125,0.7308349609375,0.4576416015625,-0.1611328125,-0.86865234375,0.50634765625,3.625,2.9375,-3.0625
2.55,4.0,9.0,-9.0,-3.0,-6.0,-2.0,-2.0,1.0,-0.35467529296875,-0.3609619140625,0.730224609375,0.45892333984375,-0.17138671875,-0.8642578125,0.5390625,0.4375,5.8125,-5.125
2.555,-1.0,3.0,2.0,1.0,-1.0,-1.0,0.0,-8.0,-0.35601806640625,-0.3612060546875,0.72869873046875,0.46014404296875,-0.19873046875,-0.8486328125,0.51220703125,-10.0,5.3125,-3.3125
2.56,3.0,-5.0,-2.0,-5.0,-1.0,2.0,3.0,-8.0
2.565,-16.0,-10.0,-31.0,-10.0,1.0,2.0,0.0,5.0,-0.35858154296875,-0.36370849609375,0.72576904296875,0.46087646484375,-0.146484375,-0.8828125,0.5283203125,-9.875,10.375,-5.0
2.57,21.0,1.0,7.0,-7.0,-2.0,-2.0,-4.0,1.0,-0.3609619140625,-0.36444091796875,0.72357177734375,0.4617919921875,-0.1845703125,-0.89501953125,0.51025390625,-13.125,14.75,-5.5625
2.575,-6.0,-14.0,-48.0,-8.0,-3.0,-2.0,-5.0,-9.0,-0.36456298828125,-0.36492919921875,0.72064208984375,0.46319580078125,-0.17431640625,-0.90087890625,0.54052734375,-18.3125,23.875,-5.6875
2.58,-6.0,10.0,-8.0,4.0,2.0,1.0,0.0,2.0,-0.36822509765625,-0.3653564453125,0.71746826171875,0.46490478515625,-0.1943359375,-0.8994140625,0.53271484375,-17.9375,24.9375,-8.8125
2.585,-5.0,6.0,-4.0,-13.0,-10.0,-16.0,-2.0,8.0,-0.37176513671875,-0.3660888671875,0.71453857421875,0.4659423828125,-0.2705078125,-0.822265625,0.42333984375,-15.8125,18.0,-11.8125
2.59,-30.0,-24.0,-14.0,-8.0,-7.0,-5.0,0.0,4.0,-0.37908935546875,-0.37158203125,0.70904541015625,0.464111328125,-0.1650390625,-1.00927734375,0.4765625,-24.3125,11.75,2.0
2.595,-4.0,0.0,-5.0,4.0,-3.0,-2.0,1.0,13.0
2.6,-7.0,1.0,7.0,0.0,2.0,2.0,-5.0,-16.0,-0.382080078125,-0.3720703125,0.70660400390625,0.46502685546875,-0.17431640625,-1.013671875,0.4736328125,-11.625,19.6875,-2.0
2.605,4.0,-32.0,-5.0,-1.0,-1.0,3.0,1.0,7.0,-0.38525390625,-0.37030029296875,0.704345703125,0.46722412109375,-0.240234375,-0.927734375,0.45654296875,-1.875,26.125,-6.3125
2.61,-32.0,-8.0,-36.0,-17.0,-10.0,-2.0,1.0,-9.0,-0.3876953125,-0.36920166015625,0.70257568359375,0.46875,-0.26171875,-0.87890625,0.4248046875,-2.4375,17.6875,-7.3125
2.615,-45.0,-9.0,13.0,-3.0,3.0,6.0,5.0,9.0,-0.38995361328125,-0.37017822265625,0.70086669921875,0.4686279296875,-0.24658203125,-0.89013671875,0.3466796875,-9.0625,7.625,-4.4375
2.62,20.0,19.0,6.0,2.0,2.0,2.0,-88.0,-21.0,-0.39141845703125,-0.37255859375,0.70001220703125,0.46685791015625,-0.212890625,-0.9677734375,0.36865234375,-14.0,-3.5,3.125
2.625,-14.0,8.0,13.0,5.0,-1.0,-7.0,3.0,-46.0,-0.3912353515625,-0.37286376953125,0.70074462890625,0.46563720703125,-0.20849609375,-1.04248046875,0.3798828125,4.9375,-6.375,7.5
2.63,39.0,-7.0,14.0,14.0,4.0,-6.0,7.0,22.0,-0.389404296875,-0.3699951171875,0.70281982421875,0.46636962890625,-0.2177734375,-0.9775390625,0.42236328125,25.3125,-3.5,5.4375
2.635,4.0,11.0,-20.0,-3.0,3.0,6.0,10.0,-7.0,-0.38616943359375,-0.365966796875,0.704833984375,0.46917724609375,-0.22412109375,-0.84716796875,0.41015625,35.8125,-1.875,-5.6875
2.64,31.0,15.0,12.0,0.0,0.0,18.0,1.0,50.0,-0.3834228515625,-0.3641357421875,0.70599365234375,0.47113037109375,-0.18310546875,-0.822265625,0.36572265625,24.375,-5.0,-6.5
2.645,2.0,-66.0,-26.0,-8.0,-8.0,-33.0,-16.0,36.0,-0.3790283203125,-0.36224365234375,0.70977783203125,0.47039794921875,-0.15771484375,-0.89794921875,0.4443359375,12.5,-9.6875,12.0625
2.65,-37.0,42.0,36.0,5.0,4.0,-8.0,-19.0,-27.0,-0.37713623046875,-0.359375,0.712646484375,0.4698486328125,-0.2353515625,-0.9501953125,0.4912109375,22.125,-7.9375,11.25
2.655,4.0,-13.0,-18.0,5.0,8.0,37.0,19.0,-4.0
2.66,-20.0,11.0,8.0,7.0,10.0,44.0,25.0,11.0,-0.373779296875,-0.3548583984375,0.716064453125,0.47076416015625,-0.20703125,-0.90625,0.4677734375,38.0,-7.1875,8.5625
2.665,-16.0,-36.0,-21.0,3.0,-5.0,-19.0,17.0,32.0,-0.3660888671875,-0.34844970703125,0.72381591796875,0.46966552734375,-0.17529296875,-0.8935546875,0.47802734375,29.4375,-18.6875,19.875
2.67,1.0,8.0,3.0,-5.0,-2.0,16.0,3.0,-27.0
2.675,2.0,59.0,38.0,0.0,0.0,-3.0,-12.0,-17.0,-0.36309814453125,-0.345458984375,0.72845458984375,0.467041015625,-0.19482421875,-0.83642578125,0.44873046875,26.625,-19.5,24.0625
2.68,5.0,-33.0,-15.0,-3.0,9.0,37.0,31.0,29.0,-0.3590087890625,-0.3416748046875,0.73486328125,0.46295166015625,-0.2783203125,-0.8125,0.57666015625,8.6875,-15.5625,8.5
2.685,104.0,73.0,28.0,7.0,-12.0,-21.0,-49.0,-35.0,-0.355224609375,-0.34014892578125,0.738037109375,0.46197509765625,-0.20947265625,-0.890625,0.564453125,20.0625,-19.9375,9.25
2.69,9.0,23.0,-21.0,-10.0,-9.0,-26.0,-6.0,49.0
2.695,-70.0,-68.0,-38.0,-17.0,-11.0,-51.0,4.0,20.0,-0.34906005859375,-0.335693359375,0.744873046875,0.4588623046875,-0.1728515625,-0.8427734375,0.541015625,19.75,-11.875,18.5625
2.7,10.0,-51.0,-32.0,-11.0,-11.0,-30.0,-30.0,19.0,-0.34735107421875,-0.3323974609375,0.7479248046875,0.4576416015625,-0.236328125,-0.7802734375,0.546875,20.0625,-7.625,14.5625
2.705,96.0,62.0,33.0,4.0,9.0,18.0,20.0,48.0,-0.3460693359375,-0.3299560546875,0.7501220703125,0.45672607421875,-0.23828125,-0.75830078125,0.5634765625,12.8125,-5.9375,10.25
2.71,-60.0,35.0,-6.0,2.0,-10.0,-11.0,6.0,16.0,-0.34552001953125,-0.32928466796875,0.7515869140625,0.45526123046875,-0.21142578125,-0.85107421875,0.57421875,4.0,-5.625,11.3125
2.715,70.0,-23.0,12.0,20.0,-8.0,-55.0,-38.0,22.0,-0.34588623046875,-0.32818603515625,0.75286865234375,0.45361328125,-0.244140625,-0.8564453125,0.56982421875,3.4375,-1.75,12.75
2.72,67.0,-3.0,-9.0,-22.0,-17.0,-18.0,-28.0,-45.0,-0.34613037109375,-0.326904296875,0.75396728515625,0.45263671875,-0.23876953125,-0.84423828125,0.54931640625,6.375,-0.0625,10.125
2.725,-36.0,-28.0,-31.0,-7.0,6.0,70.0,60.0,6.0,-0.3460693359375,-0.3251953125,0.7550048828125,0.45208740234375,-0.23583984375,-0.7998046875,0.5634765625,7.3125,1.1875,7.8125
2.73,-49.0,-39.0,-15.0,-3.0,-6.0,-37.0,3.0,20.0,-0.34661865234375,-0.32342529296875,0.75628662109375,0.45086669921875,-0.27392578125,-0.806640625,0.56494140625,-2.0625,-1.6875,2.0
2.735,29.0,-27.0,6.0,2.0,8.0,64.0,27.0,-20.0
2.74,-37.0,4.0,-26.0,-15.0,-6.0,-12.0,-2.0,-12.0,-0.3460693359375,-0.3231201171875,0.75665283203125,0.45086669921875,-0.22509765625,-0.798828125,0.56298828125,2.5625,-1.875,0.5625
2.745,55.0,23.0,-31.0,-7.0,-5.0,-26.0,-20.0,-25.0,-0.34619140625,-0.323486328125,0.7564697265625,0.45086669921875,-0.21240234375,-0.79541015625,0.5458984375,-2.4375,0.375,0.125
2.75,-8.0,-1.0,-8.0,12.0,3.0,-46.0,-35.0,-38.0,-0.34716796875,-0.323974609375,0.756103515625,0.4503173828125,-0.2353515625,-0.79443359375,0.552734375,-6.75,2.6875,2.25
2.755,-3.0,44.0,25.0,9.0,-2.0,-21.0,-21.0,-17.0,-0.34844970703125,-0.32440185546875,0.75567626953125,0.44976806640625,-0.271484375,-0.8125,0.5458984375,-6.6875,2.875,0.8125
2.76,-7.0,4.0,-1.0,-22.0,-3.0,0.0,-4.0,5.0,-0.34912109375,-0.32489013671875,0.75506591796875,0.44989013671875,-0.263671875,-0.78662109375,0.55712890625,-6.3125,2.1875,-3.9375
2.765,-4.0,-13.0,-2.0,32.0,8.0,-14.0,-10.0,0.0,-0.35040283203125,-0.3282470703125,0.752685546875,0.450439453125,-0.22314453125,-0.79736328125,0.5439453125,-11.9375,1.875,-5.75
2.77,-6.0,-13.0,-30.0,-30.0,-12.0,-1.0,5.0,-1.0
2.775,-11.0,16.0,12.0,-8.0,-3.0,35.0,19.0,25.0,-0.35137939453125,-0.3302001953125,0.75128173828125,0.4505615234375,-0.2314453125,-0.76806640625,0.52294921875,-14.5,2.125,-6.875
2.78,-9.0,24.0,-12.0,-4.0,3.0,1.0,-2.0,-2.0,-0.35662841796875,-0.33917236328125,0.7451171875,0.4500732421875,-0.22021484375,-0.806640625,0.52978515625,-41.25,8.0625,-12.875
2.785,0.0,0.0,-17.0,-44.0,-13.0,-6.0,-2.0,-2.0,-0.36004638671875,-0.34454345703125,0.7413330078125,0.449462890625,-0.21240234375,-0.93408203125,0.544921875,-39.5,8.375,-9.125
2.79,0.0,-1.0,6.0,41.0,21.0,3.0,-1.0,-2.0,-0.36328125,-0.348388671875,0.73858642578125,0.448486328125,-0.22802734375,-0.93017578125,0.52197265625,-31.0,7.8125,-3.375
2.795,-3.0,-6.0,-9.0,-8.0,-10.0,-8.0,-3.0,8.0,-0.36846923828125,-0.35546875,0.73406982421875,0.44610595703125,-0.23974609375,-0.91015625,0.47412109375,-27.6875,2.25,-2.8125
2.8,-4.0,4.0,-22.0,-40.0,-14.0,0.0,1.0,-3.0
2.805,-1.0,-1.0,-10.0,-6.0,4.0,0.0,1.0,0.0,-0.36944580078125,-0.3583984375,0.7327880859375,0.4449462890625,-0.24951171875,-0.93701171875,0.4716796875,-17.3125,-3.6875,-3.125
2.81,3.0,13.0,9.0,-11.0,-6.0,-3.0,2.0,-2.0,-0.368896484375,-0.36041259765625,0.732421875,0.4444580078125,-0.2392578125,-0.93359375,0.43505859375,-4.375,-8.75,-4.3125
2.815,0.0,-1.0,26.0,15.0,1.0,2.0,3.0,2.0,-0.36737060546875,-0.36199951171875,0.7325439453125,0.4442138671875,-0.20751953125,-0.9541015625,0.4013671875,4.25,-12.0,-3.0
2.82,-4.0,-12.0,-33.0,-65.0,-18.0,-4.0,1.0,-2.0,-0.365966796875,-0.36334228515625,0.73321533203125,0.44317626953125,-0.2158203125,-0.953125,0.41455078125,3.375,-13.75,1.5
2.825,0.0,-6.0,-14.0,-9.0,9.0,2.0,1.0,-2.0
2.83,-1.0,1.0,18.0,-5.0,-5.0,-4.0,0.0,0.0,-0.36492919921875,-0.3634033203125,0.73468017578125,0.44158935546875,-0.255859375,-0.9423828125,0.4658203125,5.3125,-12.5625,7.0625
2.835,1.0,4.0,22.0,30.0,14.0,1.0,-1.0,-2.0,-0.36358642578125,-0.3621826171875,0.73681640625,0.44012451171875,-0.291015625,-0.90185546875,0.43896484375,13.4375,-13.1875,7.5
2.84,-1.0,0.0,7.0,11.0,0.0,-3.0,-2.0,3.0,-0.36126708984375,-0.36090087890625,0.73919677734375,0.4390869140625,-0.2734375,-0.80224609375,0.44287109375,14.5625,-15.8125,4.125
2.845,-3.0,0.0,12.0,-3.0,1.0,1.0,1.0,-2.0,-0.35943603515625,-0.36199951171875,0.7403564453125,0.43768310546875,-0.23876953125,-0.8505859375,0.48193359375,-0.875,-16.875,1.5
2.85,-2.0,0.0,3.0,29.0,19.0,3.0,0.0,0.0,-0.357421875,-0.363037109375,0.7410888671875,0.43731689453125,-0.1845703125,-0.9091796875,0.54150390625,-0.375,-11.4375,-0.4375
2.855,0.0,5.0,4.0,17.0,0.0,-1.0,-2.0,0.0,-0.35516357421875,-0.36273193359375,0.74200439453125,0.43780517578125,-0.19384765625,-0.9033203125,0.52734375,9.125,-8.625,-2.375
2.86,-1.0,0.0,10.0,8.0,8.0,4.0,1.0,1.0,-0.35247802734375,-0.361083984375,0.74334716796875,0.4390869140625,-0.193359375,-0.830078125,0.55078125,15.0,-5.875,-3.6875
2.865,-3.0,0.0,-15.0,-6.0,-1.0,1.0,-1.0,-2.0,-0.3504638671875,-0.3607177734375,0.74432373046875,0.43927001953125,-0.2158203125,-0.8232421875,0.55908203125,4.5625,-8.75,-2.625
2.87,0.0,13.0,-17.0,-15.0,-7.0,-3.0,-3.0,0.0,-0.3492431640625,-0.36138916015625,0.74456787109375,0.43939208984375,-0.2041015625,-0.85693359375,0.5849609375,-4.3125,-6.0,-3.75
2.875,-6.0,6.0,63.0,-4.0,-8.0,-5.0,-2.0,-9.0,-0.34808349609375,-0.36334228515625,0.74371337890625,0.4400634765625,-0.20068359375,-0.89599609375,0.5341796875,-5.4375,-2.875,-6.625
2.88,1.0,1.0,-2.0,1.0,0.0,0.0,1.0,0.0
2.885,-3.0,-6.0,-19.0,-11.0,-6.0,-1.0,-2.0,-2.0,-0.34759521484375,-0.36431884765625,0.7430419921875,0.4407958984375,-0.177734375,-0.88525390625,0.52783203125,-3.5,-0.5625,-6.3125
2.89,-10.0,-22.0,-16.0,-11.0,-5.0,-2.0,-4.0,-5.0,-0.3460693359375,-0.3616943359375,0.74298095703125,0.44427490234375,-0.208984375,-0.8251953125,0.5400390625,9.5,5.6875,-7.6875
2.895,2.0,-5.0,12.0,-20.0,-7.0,-1.0,-2.0,0.0,-0.34625244140625,-0.361328125,0.74224853515625,0.44561767578125,-0.2138671875,-0.82177734375,0.5068359375,1.0625,5.25,-8.3125
2.9,-1.0,13.0,-3.0,-18.0,-8.0,-2.0,0.0,2.0,-0.3466796875,-0.3619384765625,0.741455078125,0.44610595703125,-0.203125,-0.83642578125,0.50634765625,-5.3125,2.5,-5.375
2.905,-4.0,-18.0,31.0,11.0,2.0,1.0,0.0,-2.0,-0.3466796875,-0.3624267578125,0.7408447265625,0.44671630859375,-0.18701171875,-0.85009765625,0.51123046875,-3.125,1.625,-4.8125
2.91,2.0,8.0,24.0,16.0,0.0,-2.0,-3.0,-2.0,-0.3465576171875,-0.3626708984375,0.74017333984375,0.44781494140625,-0.18017578125,-0.8505859375,0.52001953125,-1.25,3.0,-6.6875
2.915,-0.345947265625,-0.36334228515625,0.7392578125,0.44921875,-0.15576171875,-0.86328125,0.5087890625,-0.625,1.6875,-8.9375
2.92,0.0,15.0,6.0,-18.0,-3.0,0.0,1.0,1.0,-0.3448486328125,-0.363037109375,0.7386474609375,0.45123291015625,-0.14404296875,-0.86181640625,0.51171875,6.5,2.75,-9.5
2.925,-3.0,14.0,20.0,11.0,-2.0,-4.0,-1.0,-2.0,-0.34295654296875,-0.36212158203125,0.73828125,0.45404052734375,-0.134765625,-0.830078125,0.51708984375,12.0625,2.9375,-12.5
2.93,-2.0,-1.0,-8.0,-1.0,3.0,0.0,0.0,-2.0,-0.341064453125,-0.36151123046875,0.7376708984375,0.4569091796875,-0.154296875,-0.82666015625,0.53955078125,9.0625,1.4375,-15.5
2.935,0.0,-2.0,1.0,-6.0,-8.0,-2.0,-2.0,-2.0,-0.33941650390625,-0.3616943359375,0.73675537109375,0.45953369140625,-0.166015625,-0.84814453125,0.54150390625,5.0625,0.5,-17.25
2.94,-6.0,-15.0,-5.0,-15.0,-4.0,-1.0,-3.0,-4.0,-0.3382568359375,-0.36212158203125,0.735595703125,0.46185302734375,-0.169921875,-0.84375,0.51806640625,2.75,0.6875,-16.5
2.945,-1.0,4.0,5.0,5.0,1.0,-2.0,-2.0,-3.0,-0.3370361328125,-0.36334228515625,0.7344970703125,0.46356201171875,-0.16064453125,-0.85791015625,0.5078125,-0.625,-2.6875,-15.0625
2.95,0.0,-7.0,-15.0,-9.0,-2.0,-3.0,-2.0,-3.0,-0.33636474609375,-0.36492919921875,0.73333740234375,0.464599609375,-0.15625,-0.873046875,0.5224609375,-5.4375,-2.875,-11.6875
2.955,-7.0,-15.0,-13.0,0.0,-3.0,2.0,-1.0,-4.0,-0.3363037109375,-0.36669921875,0.73187255859375,0.46563720703125,-0.134765625,-0.9013671875,0.54248046875,-8.75,1.125,-10.3125
2.96,0.0,9.0,5.0,12.0,9.0,1.0,-2.0,-1.0,-0.33709716796875,-0.367919921875,0.73016357421875,0.466796875,-0.16748046875,-0.88623046875,0.5498046875,-10.25,5.75,-11.0625
2.965,3.0,-12.0,13.0,2.0,2.0,1.0,2.0,6.0,-0.338134765625,-0.3687744140625,0.728515625,0.46783447265625,-0.20263671875,-0.88232421875,0.5068359375,-7.375,5.375,-11.375
2.97,1.0,4.0,-2.0,-1.0,-3.0,-4.0,0.0,1.0,-0.339111328125,-0.36920166015625,0.72760009765625,0.46820068359375,-0.216796875,-0.87939453125,0.49951171875,-5.0,3.0,-6.625
2.975,-5.0,-12.0,-60.0,-13.0,-3.0,-3.0,-1.0,-1.0,-0.34063720703125,-0.369140625,0.72625732421875,0.46929931640625,-0.11767578125,-0.89990234375,0.4794921875,2.8125,7.8125,-1.125
2.98,-2.0,12.0,47.0,0.0,1.0,-3.0,-3.0,-5.0
2.985,-1.0,0.0,1.0,0.0,-1.0,0.0,0.0,-1.0,-0.341064453125,-0.36761474609375,0.725830078125,0.4708251953125,-0.11376953125,-0.87353515625,0.4892578125,8.5,11.0625,-1.1875
2.99,8.0,2.0,2.0,1.0,-1.0,-1.0,1.0,3.0,-0.34210205078125,-0.36627197265625,0.7254638671875,0.4716796875,-0.13134765625,-0.84814453125,0.482421875,4.25,10.9375,1.3125
2.995,-5.0,3.0,1.0,-1.0,3.0,-2.0,-3.0,-1.0,-0.3431396484375,-0.3663330078125,0.7247314453125,0.47198486328125,-0.12353515625,-0.83203125,0.486328125,-4.0625,7.1875,0.1875
3.0,-5.0,-3.0,3.0,2.0,-2.0,0.0,0.0,2.0,-0.34423828125,-0.36767578125,0.72369384765625,0.4718017578125,-0.138671875,-0.86279296875,0.50537109375,-11.6875,2.9375,-1.4375
3.005,-26.0,-6.0,-4.0,-26.0,-3.0,1.0,-1.0,-2.0,-0.34515380859375,-0.36932373046875,0.7225341796875,0.4715576171875,-0.15283203125,-0.8935546875,0.5107421875,-12.5625,1.3125,-3.375
3.01,-21.0,-3.0,-3.0,8.0,6.0,-1.0,-1.0,-6.0,-0.34539794921875,-0.37030029296875,0.7215576171875,0.4720458984375,-0.1806640625,-0.8857421875,0.53662109375,-0.4375,-0.5625,-3.8125
3.015,-8.0,0.0,-1.0,-3.0,-3.0,1.0,4.0,1.0,-0.3446044921875,-0.37005615234375,0.721923828125,0.47235107421875,-0.17333984375,-0.8798828125,0.51025390625,3.875,-3.1875,-2.8125
3.02,30.0,12.0,-5.0,-6.0,-6.0,-3.0,-3.0,-4.0,-0.3436279296875,-0.36993408203125,0.72222900390625,0.47265625,-0.1611328125,-0.892578125,0.52734375,3.25,-3.75,-2.6875
3.025,12.0,7.0,1.0,1.0,-5.0,-4.0,-1.0,5.0,-0.34326171875,-0.36962890625,0.7222900390625,0.47314453125,-0.14501953125,-0.87548828125,0.50732421875,2.6875,0.125,-1.9375
3.03,-11.0,-6.0,-19.0,-4.0,-1.0,1.0,-7.0,-4.0,-0.34368896484375,-0.36968994140625,0.7220458984375,0.47314453125,-0.14892578125,-0.87158203125,0.52392578125,-3.3125,2.375,0.0625
3.035,-37.0,-13.0,-43.0,-13.0,-3.0,0.0,-3.0,-8.0,-0.3443603515625,-0.3697509765625,0.721923828125,0.47271728515625,-0.15283203125,-0.88818359375,0.51123046875,-3.8125,1.875,2.9375
3.04,2.0,-4.0,3.0,4.0,1.0,2.0,0.0,-4.0,-0.3450927734375,-0.3697509765625,0.72210693359375,0.471923828125,-0.150390625,-0.8837890625,0.52197265625,-4.1875,1.5625,5.375
3.045,-0.34649658203125,-0.37078857421875,0.7216796875,0.47076416015625,-0.162109375,-0.919921875,0.48779296875,-9.625,1.0625,4.4375
3.05,16.0,-2.0,-10.0,2.0,4.0,1.0,2.0,8.0
3.055,6.0,4.0,-4.0,3.0,0.0,0.0,0.0,2.0,-0.34747314453125,-0.37078857421875,0.72161865234375,0.47015380859375,-0.13134765625,-0.93017578125,0.4931640625,5.3125,2.25,3.625
3.06,3.0,7.0,10.0,6.0,0.0,-4.0,-4.0,0.0
3.065,-3.0,-4.0,9.0,6.0,-2.0,-3.0,-1.0,-1.0,-0.346923828125,-0.3692626953125,0.72222900390625,0.47076416015625,-0.13037109375,-0.88623046875,0.50146484375,10.125,2.875,3.0
3.07,-5.0,-2.0,-1.0,-2.0,-1.0,-1.0,-2.0,6.0,-0.34930419921875,-0.36871337890625,0.72174072265625,0.47021484375,-0.169921875,-0.85205078125,0.4921875,-8.9375,5.25,4.25
3.075,30.0,-2.0,-2.0,0.0,0.0,1.0,1.0,14.0
3.08,-13.0,-4.0,3.0,2.0,2.0,1.0,3.0,-6.0,-0.35107421875,-0.36932373046875,0.72119140625,0.46923828125,-0.15625,-0.87158203125,0.51904296875,-12.1875,5.25,5.3125
3.085,15.0,-8.0,-11.0,-14.0,-4.0,-1.0,-4.0,-3.0,-0.35382080078125,-0.369140625,0.71990966796875,0.4693603515625,-0.16357421875,-0.8896484375,0.5380859375,-7.5,9.5,0.25
3.09,-6.0,-10.0,-1.0,0.0,0.0,2.0,-1.0,-4.0,-0.356201171875,-0.36956787109375,0.7181396484375,0.4698486328125,-0.17236328125,-0.861328125,0.51611328125,-13.625,13.1875,-3.1875
3.095,32.0,3.0,-1.0,-8.0,-1.0,-4.0,-3.0,4.0,-0.360107421875,-0.371826171875,0.71551513671875,0.4691162109375,-0.203125,-0.84521484375,0.47265625,-28.3125,12.5625,-2.9375
3.1,-20.0,-11.0,-7.0,0.0,-5.0,-4.0,-9.0,-10.0,-0.3636474609375,-0.375,0.712890625,0.4678955078125,-0.18994140625,-0.87841796875,0.45068359375,-30.4375,8.3125,-2.3125
3.105,35.0,-2.0,-20.0,-1.0,-2.0,-1.0,6.0,19.0,-0.36688232421875,-0.37786865234375,0.71063232421875,0.4664306640625,-0.19482421875,-0.95068359375,0.4462890625,-26.1875,6.125,0.0625
3.11,-21.0,11.0,15.0,9.0,0.0,-2.0,-2.0,-15.0,-0.36883544921875,-0.3792724609375,0.7091064453125,0.466064453125,-0.177734375,-0.9765625,0.45947265625,-13.1875,6.625,-0.9375
3.115,-24.0,-23.0,-14.0,-9.0,-4.0,-3.0,4.0,-16.0,-0.36962890625,-0.3787841796875,0.7081298828125,0.46734619140625,-0.19677734375,-1.005859375,0.43017578125,4.75,8.3125,-5.3125
3.12,10.0,-1.0,-5.0,-4.0,0.0,-2.0,-3.0,7.0,-0.36962890625,-0.37646484375,0.70794677734375,0.469482421875,-0.17919921875,-0.91552734375,0.42236328125,15.875,10.75,-4.3125
3.125,-16.0,-17.0,-12.0,-3.0,-3.0,-2.0,2.0,12.0,-0.36968994140625,-0.37384033203125,0.70831298828125,0.470947265625,-0.17626953125,-0.89599609375,0.42822265625,16.0,9.3125,0.5
3.13,9.0,-2.0,4.0,-2.0,-2.0,-4.0,-7.0,7.0,-0.370849609375,-0.3726806640625,0.7083740234375,0.470947265625,-0.18115234375,-0.8828125,0.40673828125,4.25,7.0625,4.75
3.135,-11.0,4.0,21.0,5.0,1.0,13.0,-5.0,-57.0,-0.3720703125,-0.3714599609375,0.708740234375,0.4703369140625,-0.16943359375,-0.91943359375,0.4140625,4.5625,6.0,9.625
3.14,34.0,38.0,9.0,1.0,5.0,42.0,11.0,22.0,-0.37298583984375,-0.36669921875,0.710205078125,0.47113037109375,-0.14501953125,-0.94921875,0.43798828125,19.0,11.125,8.0
3.145,37.0,34.0,22.0,2.0,3.0,29.0,20.0,-43.0
3.15,-8.0,-11.0,13.0,6.0,4.0,0.0,-38.0,-85.0,-0.373046875,-0.36138916015625,0.71148681640625,0.4732666015625,-0.16845703125,-0.900390625,0.40673828125,33.1875,16.0625,7.6875
3.155,-33.0,-15.0,-24.0,-1.0,4.0,29.0,22.0,52.0,-0.37255859375,-0.357666015625,0.712890625,0.47442626953125,-0.1943359375,-0.83203125,0.384765625,25.75,6.5625,5.625
3.16,-47.0,-10.0,-2.0,-5.0,-11.0,-49.0,-65.0,-32.0,-0.3720703125,-0.3565673828125,0.7142333984375,0.47357177734375,-0.1376953125,-0.8310546875,0.37841796875,10.9375,-3.125,11.3125
3.165,-64.0,-24.0,-8.0,-18.0,-20.0,-31.0,-45.0,49.0,-0.3712158203125,-0.35565185546875,0.717041015625,0.47076416015625,-0.11572265625,-0.95654296875,0.4140625,12.625,-10.875,25.625
3.17,-104.0,-42.0,-27.0,4.0,-2.0,-43.0,-21.0,-20.0,-0.3685302734375,-0.34747314453125,0.72479248046875,0.467041015625,-0.25439453125,-0.84521484375,0.4990234375,24.0625,-4.6875,20.125
3.175,56.0,-20.0,4.0,5.0,9.0,2.0,7.0,4.0
3.18,-17.0,7.0,-12.0,2.0,2.0,2.0,29.0,-43.0,-0.366943359375,-0.3436279296875,0.728759765625,0.46490478515625,-0.265625,-0.82958984375,0.53271484375,20.9375,-10.125,21.3125
3.185,72.0,38.0,35.0,8.0,-2.0,-3.0,-24.0,-61.0,-0.36474609375,-0.3414306640625,0.73260498046875,0.46221923828125,-0.22412109375,-0.78515625,0.51708984375,14.125,-16.5625,20.6875
3.19,-8.0,-28.0,13.0,0.0,-11.0,-68.0,-24.0,-46.0,-0.36175537109375,-0.33953857421875,0.73846435546875,0.45654296875,-0.21142578125,-0.8056640625,0.52783203125,2.25,-13.1875,18.0625
3.195,-102.0,2.0,15.0,2.0,1.0,11.0,-60.0,-25.0,-0.3612060546875,-0.33966064453125,0.740234375,0.4541015625,-0.20751953125,-0.86572265625,0.5390625,-1.3125,-9.9375,15.0
3.2,66.0,-8.0,-6.0,6.0,36.0,127.0,66.0,-63.0,-0.36077880859375,-0.33831787109375,0.74212646484375,0.45233154296875,-0.267578125,-0.86181640625,0.55712890625,5.125,-6.375,12.875
3.205,-9.0,6.0,-25.0,-14.0,-14.0,-43.0,-40.0,-25.0,-0.35992431640625,-0.336669921875,0.7440185546875,0.45111083984375,-0.29443359375,-0.8251953125,0.5556640625,7.9375,-7.0625,8.4375
3.21,32.0,5.0,6.0,7.0,-8.0,-51.0,29.0,30.0,-0.3585205078125,-0.33502197265625,0.745849609375,0.450439453125,-0.25048828125,-0.79736328125,0.56103515625,9.375,-6.6875,6.5
3.215,-41.0,-13.0,-53.0,-9.0,-1.0,69.0,44.0,90.0,-0.3580322265625,-0.33502197265625,0.74737548828125,0.4483642578125,-0.2470703125,-0.84228515625,0.58203125,-2.375,-2.125,6.125
3.22,55.0,6.0,14.0,0.0,-5.0,6.0,-13.0,-26.0,-0.35797119140625,-0.3341064453125,0.74798583984375,0.44805908203125,-0.2880859375,-0.84619140625,0.55810546875,3.25,-0.9375,1.9375
3.225,45.0,12.0,20.0,14.0,11.0,57.0,3.0,-38.0,-0.3577880859375,-0.333740234375,0.74810791015625,0.4482421875,-0.22705078125,-0.81494140625,0.5400390625,1.4375,0.875,0.25
3.23,9.0,-4.0,-33.0,-14.0,4.0,8.0,23.0,5.0,-0.35845947265625,-0.33367919921875,0.74761962890625,0.44854736328125,-0.2607421875,-0.83837890625,0.546875,-2.4375,2.625,-0.4375
3.235,-71.0,-7.0,25.0,5.0,16.0,100.0,43.0,3.0
3.24,-37.0,-16.0,-1.0,-11.0,-13.0,-53.0,-27.0,-4.0,-0.35888671875,-0.33355712890625,0.74737548828125,0.44879150390625,-0.25244140625,-0.83447265625,0.53564453125,-1.1875,2.6875,-1.5
3.245,-8.0,-6.0,54.0,11.0,-5.0,-10.0,-22.0,18.0,-0.3590087890625,-0.333984375,0.74700927734375,0.448974609375,-0.2236328125,-0.84423828125,0.53125,-2.375,1.25,-1.25
3.25,-46.0,-33.0,-66.0,-16.0,-14.0,-51.0,-4.0,14.0,-0.3587646484375,-0.333740234375,0.7469482421875,0.44940185546875,-0.23779296875,-0.8466796875,0.5205078125,3.3125,0.625,-1.625
3.255,-25.0,2.0,8.0,11.0,6.0,14.0,4.0,-15.0,-0.3585205078125,-0.3341064453125,0.745849609375,0.45111083984375,-0.21142578125,-0.81982421875,0.5283203125,-3.625,2.3125,-5.3125
3.26,35.0,22.0,-8.0,2.0,-4.0,-7.0,-7.0,11.0,-0.3592529296875,-0.335205078125,0.74493408203125,0.45123291015625,-0.2255859375,-0.83203125,0.5263671875,-8.3125,2.8125,-3.375
3.265,-2.0,-5.0,3.0,4.0,1.0,33.0,14.0,17.0,-0.36041259765625,-0.3370361328125,0.74310302734375,0.4520263671875,-0.2509765625,-0.8046875,0.517578125,-8.3125,2.0625,-8.625
3.27,15.0,9.0,-6.0,-4.0,-4.0,-7.0,8.0,12.0
3.275,2.0,19.0,8.0,-16.0,-20.0,-7.0,5.0,2.0,-0.361083984375,-0.33935546875,0.74127197265625,0.4527587890625,-0.21826171875,-0.78662109375,0.5224609375,-16.0,2.5,-11.4375
3.28,-7.0,-17.0,1.0,13.0,1.0,-7.0,-5.0,0.0,-0.36480712890625,-0.34613037109375,0.73651123046875,0.452392578125,-0.22021484375,-0.83056640625,0.51318359375,-26.625,4.625,-7.625
3.285,1.0,1.0,-10.0,-13.0,-5.0,-5.0,-6.0,-2.0,-0.36700439453125,-0.3502197265625,0.73388671875,0.45159912109375,-0.25244140625,-0.82080078125,0.47900390625,-30.375,1.375,-10.0625
3.29,1.0,-17.0,-5.0,28.0,27.0,9.0,-1.0,-1.0
3.295,3.0,3.0,5.0,2.0,-4.0,-2.0,-2.0,3.0,-0.3687744140625,-0.35577392578125,0.73089599609375,0.4508056640625,-0.21875,-0.87548828125,0.49462890625,-36.125,-2.0625,-12.25
3.3,2.0,6.0,-13.0,-10.0,-1.0,0.0,2.0,1.0,-0.37091064453125,-0.36181640625,0.72747802734375,0.44976806640625,-0.1923828125,-0.97021484375,0.48193359375,-37.375,-0.5,-9.8125
3.305,1.0,-2.0,4.0,8.0,4.0,1.0,2.0,2.0,-0.373046875,-0.36578369140625,0.72491455078125,0.44891357421875,-0.2138671875,-1.0,0.4970703125,-27.5625,3.0625,-5.375
3.31,1.0,7.0,10.0,-6.0,-5.0,-3.0,-1.0,0.0,-0.37481689453125,-0.36767578125,0.7235107421875,0.4481201171875,-0.244140625,-0.98583984375,0.48388671875,-15.6875,3.125,-0.8125
3.315,-2.0,3.0,-6.0,-11.0,-6.0,-3.0,0.0,-8.0,-0.3751220703125,-0.367919921875,0.7235107421875,0.44769287109375,-0.25,-0.9560546875,0.47900390625,-1.8125,-0.875,0.9375
3.32,-2.0,1.0,20.0,3.0,-3.0,-1.0,-2.0,-2.0,-0.37469482421875,-0.3675537109375,0.72381591796875,0.4478759765625,-0.2412109375,-0.92822265625,0.45361328125,5.25,-1.9375,-0.625
3.325,1.0,4.0,3.0,4.0,-3.0,-1.0,-2.0,0.0,-0.37353515625,-0.3670654296875,0.72491455078125,0.447509765625,-0.2138671875,-0.92236328125,0.451171875,2.8125,-3.875,3.25
3.33,-3.0,-6.0,-15.0,18.0,7.0,-1.0,0.0,-1.0
3.335,1.0,-7.0,-12.0,-9.0,-4.0,-1.0,-1.0,-2.0,-0.37310791015625,-0.3663330078125,0.72589111328125,0.44677734375,-0.23046875,-0.9404296875,0.4580078125,6.625,-3.8125,6.125
3.34,-4.0,-7.0,-1.0,-15.0,-8.0,-4.0,-5.0,-5.0,-0.36956787109375,-0.363037109375,0.72869873046875,0.4478759765625,-0.23779296875,-0.8603515625,0.44677734375,21.5625,-5.625,-1.875
3.345,0.0,2.0,-2.0,-3.0,2.0,1.0,-1.0,2.0
3.35,1.0,4.0,25.0,-28.0,-16.0,-7.0,-2.0,0.0,-0.3675537109375,-0.361572265625,0.72998046875,0.4486083984375,-0.23388671875,-0.8583984375,0.43896484375,17.25,-7.3125,-2.1875
3.355,-6.0,-7.0,-25.0,-15.0,-1.0,-4.0,-4.0,-3.0,-0.36578369140625,-0.3609619140625,0.73089599609375,0.44903564453125,-0.2294921875,-0.89892578125,0.46044921875,11.9375,-7.5,-2.3125
3.36,6.0,15.0,14.0,8.0,5.0,0.0,1.0,3.0,-0.36297607421875,-0.3597412109375,0.73236083984375,0.45001220703125,-0.23388671875,-0.9111328125,0.486328125,18.625,-10.3125,-4.3125
3.365,-2.0,-5.0,8.0,1.0,0.0,-2.0,-1.0,-2.0,-0.3587646484375,-0.35736083984375,0.7342529296875,0.4521484375,-0.212890625,-0.8720703125,0.47705078125,30.6875,-11.8125,-8.0625
3.37,-4.0,-10.0,-10.0,-22.0,-2.0,-2.0,-4.0,-3.0,-0.3543701171875,-0.35565185546875,0.73626708984375,0.4537353515625,-0.20166015625,-0.84912109375,0.4580078125,28.4375,-15.375,-7.375
3.375,-7.0,-9.0,-58.0,-7.0,-5.0,-3.0,-3.0,-5.0,-0.34979248046875,-0.35345458984375,0.73858642578125,0.4552001953125,-0.18359375,-0.81982421875,0.48486328125,29.3125,-15.25,-4.625
3.38,-3.0,1.0,21.0,-22.0,-11.0,-6.0,-4.0,-3.0,-0.3402099609375,-0.34954833984375,0.7425537109375,0.458984375,-0.1494140625,-0.85009765625,0.537109375,29.6875,-11.0625,-9.3125
3.385,-5.0,-7.0,12.0,-12.0,-10.0,-3.0,-4.0,0.0,-0.33599853515625,-0.3470458984375,0.74365234375,0.46209716796875,-0.16357421875,-0.82666015625,0.54541015625,29.125,-6.4375,-13.0
3.39,1.0,-11.0,-7.0,8.0,3.0,0.0,0.0,2.0,-0.33050537109375,-0.34375,0.74578857421875,0.46514892578125,-0.15673828125,-0.78125,0.5576171875,36.6875,-12.0625,-11.5625
3.395,3.0,3.0,56.0,39.0,3.0,1.0,1.0,0.0,-0.32513427734375,-0.34075927734375,0.74810791015625,0.4674072265625,-0.14404296875,-0.794921875,0.55029296875,35.3125,-14.1875,-7.25
3.4,3.0,-7.0,-52.0,-19.0,0.0,2.0,4.0,2.0,-0.32086181640625,-0.3387451171875,0.7498779296875,0.46893310546875,-0.1259765625,-0.8076171875,0.57763671875,25.5,-11.3125,-4.3125
3.405,-8.0,-14.0,-35.0,-23.0,-8.0,-5.0,-5.0,-5.0,-0.3182373046875,-0.33831787109375,0.75030517578125,0.470458984375,-0.12841796875,-0.81591796875,0.57763671875,12.375,-6.8125,-7.9375
3.41,5.0,-4.0,-41.0,-4.0,-1.0,0.0,0.0,2.0,-0.3143310546875,-0.33758544921875,0.7506103515625,0.47308349609375,-0.17919921875,-0.818359375,0.60205078125,12.0625,-5.75,-8.0625
3.415,3.0,-10.0,6.0,-3.0,-5.0,-3.0,-1.0,2.0
3.42,-3.0,-1.0,13.0,9.0,1.0,-1.0,-2.0,0.0,-0.3116455078125,-0.33612060546875,0.75146484375,0.47454833984375,-0.1494140625,-0.8154296875,0.6162109375,16.0625,-5.9375,-6.125
3.425,-7.0,-11.0,-4.0,5.0,2.0,-2.0,-3.0,-3.0,-0.30877685546875,-0.3358154296875,0.75115966796875,0.47705078125,-0.1376953125,-0.76318359375,0.62451171875,-2.3125,-1.9375,-8.625
3.43,-2.0,11.0,12.0,-9.0,-9.0,-3.0,-2.0,-3.0,-0.30938720703125,-0.33770751953125,0.75018310546875,0.47686767578125,-0.15234375,-0.794921875,0.59228515625,-12.8125,-1.625,-4.5
3.435,-4.0,-3.0,-21.0,-9.0,1.0,1.0,-1.0,-1.0
3.44,-1.0,-10.0,-6.0,14.0,3.0,-3.0,-1.0,-1.0,-0.3104248046875,-0.34075927734375,0.74884033203125,0.47613525390625,-0.1376953125,-0.8427734375,0.57275390625,-18.4375,-2.6875,-3.6875
3.445,-3.0,-2.0,0.0,-18.0,-8.0,-3.0,-3.0,-4.0,-0.31085205078125,-0.3424072265625,0.748046875,0.4759521484375,-0.14453125,-0.8681640625,0.5888671875,-8.5,-1.6875,-3.1875
3.45,-5.0,1.0,-13.0,-26.0,-4.0,0.0,2.0,0.0,-0.31103515625,-0.34246826171875,0.74774169921875,0.47625732421875,-0.14501953125,-0.8466796875,0.59619140625,-0.75,1.625,-1.8125
3.455,2.0,-3.0,15.0,9.0,3.0,1.0,3.0,3.0,-0.3111572265625,-0.3424072265625,0.74725341796875,0.47698974609375,-0.14404296875,-0.8359375,0.60595703125,-0.75,3.1875,-4.375
3.46,3.0,-3.0,-38.0,-15.0,-2.0,-1.0,-2.0,-2.0,-0.31280517578125,-0.34375,0.74591064453125,0.47705078125,-0.16259765625,-0.81201171875,0.5751953125,-8.9375,0.3125,-0.625
3.465,-1.0,-16.0,3.0,1.0,1.0,-2.0,-3.0,-1.0,-0.31341552734375,-0.3453369140625,0.745361328125,0.476318359375,-0.1357421875,-0.8408203125,0.56884765625,-10.125,-2.0625,0.3125
3.47,7.0,3.0,-15.0,-7.0,-1.0,-1.0,0.0,3.0
3.475,1.0,-6.0,15.0,-4.0,-1.0,0.0,-1.0,5.0,-0.31390380859375,-0.3468017578125,0.74456787109375,0.4761962890625,-0.12109375,-0.8818359375,0.57666015625,-7.6875,0.25,-1.6875
3.48,0.0,0.0,21.0,-7.0,-4.0,-1.0,-1.0,-3.0,-0.3140869140625,-0.3472900390625,0.7440185546875,0.4765625,-0.12109375,-0.88330078125,0.583984375,-1.625,1.9375,-2.25
3.485,-5.0,-3.0,6.0,7.0,-6.0,-2.0,-1.0,-1.0,-0.3143310546875,-0.346923828125,0.7440185546875,0.47674560546875,-0.1484375,-0.83544921875,0.56689453125,1.75,1.875,-0.0625
3.49,4.0,-25.0,-14.0,0.0,0.0,-2.0,-2.0,-2.0,-0.31463623046875,-0.34710693359375,0.7440185546875,0.476318359375,-0.14990234375,-0.8330078125,0.5654296875,-2.1875,-0.625,1.4375
3.495,3.0,-7.0,-28.0,-5.0,-3.0,-1.0,1.0,-1.0,-0.315185546875,-0.3477783203125,0.743896484375,0.47564697265625,-0.14697265625,-0.82666015625,0.56201171875,-5.5625,-0.9375,1.9375
3.5,-3.0,2.0,31.0,16.0,1.0,-1.0,-2.0,-1.0,-0.31573486328125,-0.3485107421875,0.74365234375,0.47515869140625,-0.14453125,-0.859375,0.5576171875,-4.5625,-0.3125,1.25
3.505,4.0,13.0,9.0,9.0,2.0,0.0,0.0,0.0,-0.31573486328125,-0.34857177734375,0.74359130859375,0.47515869140625,-0.138671875,-0.8828125,0.583984375,0.6875,0.25,0.75
3.51,5.0,4.0,3.0,0.0,-1.0,-1.0,-1.0,-4.0,-0.31536865234375,-0.3477783203125,0.7440185546875,0.475341796875,-0.13232421875,-0.8544921875,0.576171875,5.8125,0.5,1.75
3.515,-10.0,-5.0,-7.0,8.0,0.0,0.0,-2.0,1.0,-0.315185546875,-0.34661865234375,0.74462890625,0.47540283203125,-0.14306640625,-0.8056640625,0.58349609375,4.875,1.625,2.6875
3.52,4.0,-7.0,-2.0,-9.0,-4.0,-1.0,1.0,5.0,-0.31646728515625,-0.3472900390625,0.7449951171875,0.47344970703125,-0.158203125,-0.830078125,0.58251953125,-9.5625,-1.4375,5.4375
3.525,-11.0,2.0,0.0,0.0,0.0,-1.0,-1.0,-8.0
3.53,38.0,4.0,-2.0,-6.0,0.0,0.0,-3.0,-7.0,-0.31732177734375,-0.34820556640625,0.7449951171875,0.47222900390625,-0.1474609375,-0.8525390625,0.58544921875,-9.0625,-1.0,5.5625
3.535,14.0,-1.0,-8.0,-9.0,-2.0,-2.0,-1.0,-2.0,-0.317626953125,-0.34661865234375,0.745849609375,0.471923828125,-0.13330078125,-0.82861328125,0.623046875,5.3125,4.0,4.3125
3.54,-20.0,0.0,-16.0,0.0,-1.0,-1.0,-6.0,-1.0
3.545,-31.0,-16.0,6.0,-6.0,-5.0,-3.0,-3.0,-5.0,-0.31805419921875,-0.34490966796875,0.7459716796875,0.47259521484375,-0.1328125,-0.80859375,0.6337890625,3.0,9.125,2.125
3.55,-11.0,1.0,-12.0,-7.0,-4.0,-4.0,-2.0,2.0,-0.32537841796875,-0.3466796875,0.7423095703125,0.4720458984375,-0.17919921875,-0.7763671875,0.60205078125,-28.5,17.125,0.0
3.555,-35.0,-10.0,6.0,1.0,5.0,2.0,-5.0,-16.0,-0.3297119140625,-0.35009765625,0.73992919921875,0.47027587890625,-0.18701171875,-0.83984375,0.52734375,-33.625,8.875,1.625
3.56,2.0,8.0,-25.0,-7.0,-5.0,0.0,1.0,-1.0,-0.33575439453125,-0.3564453125,0.7359619140625,0.467529296875,-0.1494140625,-0.97314453125,0.49609375,-13.6875,5.5,2.1875
3.565,3.0,-2.0,-9.0,0.0,3.0,2.0,5.0,6.0,-0.3369140625,-0.35516357421875,0.73583984375,0.4677734375,-0.1640625,-0.93994140625,0.4970703125,7.6875,8.5625,4.5625
3.57,37.0,-6.0,12.0,15.0,-1.0,-3.0,-5.0,-15.0,-0.3377685546875,-0.3526611328125,0.73638916015625,0.46820068359375,-0.18896484375,-0.826171875,0.48828125,12.125,9.0625,4.625
3.575,22.0,0.0,-11.0,5.0,3.0,1.0,-3.0,-10.0,-0.33966064453125,-0.3526611328125,0.7359619140625,0.46759033203125,-0.18798828125,-0.8271484375,0.47998046875,-5.1875,6.4375,3.9375
3.58,-60.0,-10.0,-16.0,-8.0,-6.0,-1.0,1.0,-2.0,-0.342529296875,-0.353515625,0.73504638671875,0.4661865234375,-0.181640625,-0.8623046875,0.509765625,-14.8125,8.25,7.5
3.585,-14.0,-8.0,10.0,-1.0,-3.0,-3.0,7.0,14.0,-0.34442138671875,-0.35369873046875,0.73504638671875,0.4647216796875,-0.19140625,-0.857421875,0.5126953125,-8.1875,3.9375,9.125
3.59,10.0,-2.0,-4.0,-2.0,-2.0,-4.0,-5.0,-8.0,-0.34564208984375,-0.35498046875,0.73486328125,0.463134765625,-0.2041015625,-0.8759765625,0.5029296875,-10.6875,-2.125,5.0
3.595,-8.0,3.0,22.0,6.0,2.0,4.0,7.0,-8.0,-0.34613037109375,-0.35595703125,0.73480224609375,0.4620361328125,-0.2021484375,-0.90478515625,0.51220703125,-6.0,-3.3125,3.0625
3.6,57.0,15.0,11.0,-8.0,-1.0,17.0,10.0,0.0,-0.3447265625,-0.354736328125,0.736572265625,0.46124267578125,-0.17724609375,-0.865234375,0.51025390625,9.875,-3.9375,4.875
3.605,-5.0,8.0,-5.0,-4.0,0.0,-8.0,-10.0,-12.0,-0.34423828125,-0.35284423828125,0.7376708984375,0.4613037109375,-0.17333984375,-0.83251953125,0.529296875,10.25,1.25,5.875
3.61,-1.0,16.0,14.0,4.0,-2.0,-5.0,-10.0,-14.0,-0.34222412109375,-0.34942626953125,0.740234375,0.4613037109375,-0.17236328125,-0.85107421875,0.51220703125,13.5625,-3.8125,5.9375
3.615,-42.0,-8.0,5.0,3.0,-14.0,-55.0,-13.0,21.0,-0.340087890625,-0.34698486328125,0.7427978515625,0.46063232421875,-0.18359375,-0.8828125,0.544921875,20.5625,-8.625,10.75
3.62,6.0,-8.0,-7.0,3.0,-7.0,-55.0,-32.0,28.0,-0.337158203125,-0.343505859375,0.74554443359375,0.4609375,-0.1708984375,-0.8515625,0.55224609375,28.6875,-7.4375,8.1875
3.625,0.0,-7.0,-19.0,-6.0,-2.0,1.0,-18.0,26.0,-0.33447265625,-0.34033203125,0.748291015625,0.46075439453125,-0.19091796875,-0.86083984375,0.53125,28.125,-8.875,9.3125
3.63,-33.0,-12.0,13.0,-4.0,1.0,0.0,-25.0,-55.0,-0.33111572265625,-0.33642578125,0.751708984375,0.46044921875,-0.17724609375,-0.84619140625,0.55712890625,32.875,-10.9375,12.1875
3.635,1.0,-8.0,-12.0,-4.0,-4.0,-16.0,-19.0,3.0,-0.32684326171875,-0.331298828125,0.75592041015625,0.46038818359375,-0.1796875,-0.857421875,0.5537109375,44.1875,-12.875,14.0
3.64,42.0,4.0,42.0,16.0,-7.0,-48.0,-23.0,4.0,-0.3189697265625,-0.32232666015625,0.7637939453125,0.4593505859375,-0.2119140625,-0.775390625,0.5556640625,26.3125,-16.375,11.3125
3.645,45.0,1.0,25.0,11.0,0.0,-9.0,1.0,-19.0,-0.314697265625,-0.3201904296875,0.7686767578125,0.45556640625,-0.1591796875,-0.83056640625,0.6025390625,10.875,-11.75,17.6875
3.65,-22.0,13.0,-3.0,-6.0,-3.0,8.0,6.0,79.0
3.655,7.0,27.0,-4.0,-7.0,2.0,48.0,15.0,12.0,-0.31378173828125,-0.318359375,0.77099609375,0.45361328125,-0.224609375,-0.82861328125,0.59375,13.625,-8.1875,15.3125
3.66,19.0,15.0,-14.0,-3.0,-7.0,-17.0,-10.0,-22.0,-0.31256103515625,-0.314453125,0.77398681640625,0.4520263671875,-0.23388671875,-0.7060546875,0.60595703125,4.5625,-2.3125,4.25
3.665,42.0,-32.0,-28.0,-8.0,-13.0,-72.0,-28.0,-15.0,-0.312744140625,-0.31536865234375,0.77423095703125,0.45086669921875,-0.2001953125,-0.77099609375,0.634765625,-7.875,-3.75,4.6875
3.67,-14.0,5.0,-1.0,-2.0,-1.0,-3.0,7.0,-10.0,-0.3133544921875,-0.31634521484375,0.7744140625,0.4493408203125,-0.23193359375,-0.78955078125,0.6240234375,-8.6875,-3.8125,5.0
3.675,-10.0,21.0,-30.0,-2.0,-6.0,-29.0,11.0,7.0,-0.31243896484375,-0.3165283203125,0.7755126953125,0.44793701171875,-0.20263671875,-0.80078125,0.63916015625,5.4375,-4.875,2.125
3.68,28.0,10.0,15.0,5.0,3.0,10.0,0.0,8.0
3.685,30.0,-15.0,-19.0,2.0,-10.0,-31.0,-20.0,17.0,-0.31103515625,-0.31591796875,0.77642822265625,0.4478759765625,-0.17626953125,-0.75244140625,0.6298828125,5.875,-4.9375,2.125
3.69,7.0,36.0,-3.0,4.0,10.0,6.0,6.0,-34.0,-0.30999755859375,-0.31658935546875,0.77740478515625,0.44647216796875,-0.2041015625,-0.794921875,0.64013671875,-3.125,-4.375,4.0625
3.695,-32.0,11.0,-6.0,1.0,-2.0,-16.0,-26.0,-22.0
3.7,5.0,-27.0,-12.0,7.0,11.0,60.0,27.0,27.0,-0.30975341796875,-0.31658935546875,0.7777099609375,0.446044921875,-0.201171875,-0.79736328125,0.62451171875,0.6875,-2.1875,2.5625
3.705,-26.0,22.0,7.0,7.0,3.0,-11.0,-10.0,-30.0,-0.3087158203125,-0.31707763671875,0.77777099609375,0.4462890625,-0.1796875,-0.7568359375,0.6318359375,-5.6875,-2.5625,-0.875
3.71,16.0,20.0,14.0,-19.0,-13.0,-27.0,-31.0,24.0
3.715,26.0,-16.0,27.0,11.0,-2.0,-3.0,-5.0,7.0,-0.30914306640625,-0.3182373046875,0.7774658203125,0.4456787109375,-0.1845703125,-0.81787109375,0.63330078125,-7.625,-0.6875,2.0625
3.72,-18.0,-22.0,6.0,-4.0,1.0,5.0,11.0,8.0,-0.309814453125,-0.31866455078125,0.77734375,0.44512939453125,-0.20263671875,-0.79736328125,0.63232421875,-5.1875,1.125,2.5
3.725,8.0,-3.0,-6.0,0.0,3.0,5.0,11.0,3.0,-0.309814453125,-0.31866455078125,0.77740478515625,0.44512939453125,-0.21337890625,-0.77734375,0.62890625,-0.6875,0.375,0.25
3.73,0.0,-22.0,-15.0,0.0,-2.0,14.0,1.0,-19.0,-0.30963134765625,-0.3187255859375,0.77728271484375,0.4453125,-0.20703125,-0.763671875,0.63037109375,-1.5,-0.375,-2.25
3.735,23.0,4.0,2.0,6.0,3.0,27.0,37.0,12.0,-0.309326171875,-0.319091796875,0.7772216796875,0.44549560546875,-0.17626953125,-0.744140625,0.63916015625,-3.75,-0.6875,-1.4375
3.74,-13.0,-12.0,-22.0,-14.0,-5.0,-13.0,-12.0,-8.0,-0.30975341796875,-0.32000732421875,0.7767333984375,0.4453125,-0.197265625,-0.7568359375,0.626953125,-8.5,0.5625,-1.6875
3.745,-11.0,-1.0,-3.0,4.0,-1.0,-3.0,-8.0,-17.0,-0.3104248046875,-0.3212890625,0.77581787109375,0.44549560546875,-0.181640625,-0.7685546875,0.6259765625,-10.3125,2.4375,-3.3125
3.75,2.0,7.0,4.0,8.0,9.0,4.0,-3.0,4.0,-0.31158447265625,-0.32269287109375,0.7745361328125,0.4459228515625,-0.18310546875,-0.77392578125,0.6259765625,-12.5625,5.4375,-5.0
3.755,4.0,2.0,8.0,1.0,-1.0,2.0,1.0,0.0,-0.312744140625,-0.32421875,0.773193359375,0.4462890625,-0.1923828125,-0.75927734375,0.61181640625,-13.4375,4.5625,-6.125
3.76,-3.0,-10.0,-9.0,0.0,16.0,7.0,3.0,1.0,-0.313720703125,-0.326171875,0.77215576171875,0.446044921875,-0.197265625,-0.7158203125,0.60888671875,-17.75,0.875,-4.3125
3.765,-1.0,-3.0,6.0,14.0,3.0,-5.0,-7.0,-1.0,-0.3150634765625,-0.33056640625,0.7706298828125,0.4444580078125,-0.2041015625,-0.748046875,0.55859375,-28.9375,-6.25,-3.6875
3.77,-2.0,-1.0,-49.0,-14.0,-7.0,-3.0,-2.0,-3.0,-0.31689453125,-0.33697509765625,0.7681884765625,0.44256591796875,-0.185546875,-0.84423828125,0.583984375,-39.75,-7.25,-5.1875
3.775,-3.0,-10.0,-8.0,-14.0,1.0,-1.0,-3.0,-1.0
3.78,-2.0,-9.0,2.0,7.0,-1.0,2.0,-2.0,-2.0,-0.3182373046875,-0.341796875,0.765869140625,0.44195556640625,-0.17626953125,-0.94384765625,0.6015625,-27.0,-2.625,-7.0625
3.785,-2.0,-4.0,-13.0,-1.0,-6.0,-4.0,-3.0,-4.0,-0.318603515625,-0.34283447265625,0.76422119140625,0.44366455078125,-0.2275390625,-0.8916015625,0.59765625,3.375,2.0625,-6.3125
3.79,-2.0,-3.0,16.0,-1.0,-5.0,-6.0,-4.0,-1.0
3.795,-1.0,3.0,3.0,-5.0,-5.0,-1.0,0.0,1.0,-0.31829833984375,-0.342529296875,0.76416015625,0.4442138671875,-0.232421875,-0.85595703125,0.57861328125,3.9375,-1.0625,-4.875
3.8,-2.0,-1.0,-43.0,-15.0,-2.0,-1.0,-2.0,4.0,-0.3184814453125,-0.3433837890625,0.7640380859375,0.4437255859375,-0.19287109375,-0.85986328125,0.55859375,-1.6875,-1.6875,0.125
3.805,2.0,-4.0,-2.0,-12.0,0.0,2.0,1.0,0.0,-0.31884765625,-0.3433837890625,0.7640380859375,0.44342041015625,-0.20458984375,-0.89306640625,0.55419921875,2.3125,0.0,2.125
3.81,-4.0,-6.0,-9.0,-20.0,-2.0,-3.0,-2.0,-5.0,-0.318359375,-0.3421630859375,0.764892578125,0.4432373046875,-0.22802734375,-0.91552734375,0.57763671875,11.3125,-2.25,3.0
3.815,0.0,-3.0,14.0,4.0,-4.0,-2.0,0.0,-3.0,-0.31640625,-0.340087890625,0.7662353515625,0.4439697265625,-0.228515625,-0.8193359375,0.53759765625,20.3125,-6.8125,-2.1875
3.82,2.0,13.0,-13.0,-11.0,0.0,1.0,2.0,2.0,-0.31512451171875,-0.33929443359375,0.7669677734375,0.4442138671875,-0.17529296875,-0.81494140625,0.537109375,11.1875,-4.5625,0.125
3.825,0.0,8.0,-4.0,-28.0,-7.0,-3.0,-2.0,-2.0,-0.31488037109375,-0.33905029296875,0.76751708984375,0.443603515625,-0.171875,-0.84228515625,0.54248046875,5.0,-2.5,5.25
3.83,5.0,9.0,27.0,27.0,6.0,4.0,4.0,2.0,-0.314453125,-0.33740234375,0.76861572265625,0.44317626953125,-0.18896484375,-0.83984375,0.60986328125,9.3125,-0.4375,7.0
3.835,-4.0,-4.0,-25.0,-1.0,-3.0,-2.0,-3.0,-6.0,-0.3143310546875,-0.3360595703125,0.76922607421875,0.443359375,-0.21923828125,-0.83544921875,0.564453125,9.875,0.75,1.6875
