time,channel_1,channel_2,channel_3,channel_4,channel_5,channel_6,channel_7,channel_8,orientation_x,orientation_y,orientation_z,orientation_w,acceleration_x,acceleration_y,acceleration_z,gyroscope_x,gyroscope_y,gyroscope_z
0.005,-1.0,-1.0,0.0,-3.0,-2.0,-4.0,-1.0,0.0,-0.3494873046875,-0.4576416015625,0.73193359375,0.3642578125,-0.17822265625,-0.9521484375,0.34228515625,-0.3125,1.3125,2.5625
0.01,-1.0,0.0,4.0,1.0,-1.0,-1.0,-1.0,0.0,-0.3507080078125,-0.45697021484375,0.732177734375,0.36346435546875,-0.193359375,-0.94775390625,0.34912109375,-0.9375,1.9375,4.1875
0.015,-2.0,-3.0,-19.0,-10.0,-1.0,-3.0,0.0,1.0
0.02,0.0,-1.0,5.0,2.0,-2.0,0.0,2.0,-1.0,-0.3514404296875,-0.45672607421875,0.732177734375,0.36297607421875,-0.19287109375,-0.95947265625,0.34619140625,-1.3125,2.25,4.125
0.025,0.0,0.0,-3.0,2.0,3.0,2.0,2.0,0.0,-0.3519287109375,-0.456298828125,0.73236083984375,0.36279296875,-0.1875,-0.9580078125,0.3486328125,0.6875,2.125,3.5
0.03,0.0,-1.0,3.0,-1.0,-1.0,1.0,-1.0,1.0,-0.35260009765625,-0.45562744140625,0.7325439453125,0.36248779296875,-0.1796875,-0.95556640625,0.33935546875,0.6875,1.625,3.0
0.035,-1.0,-3.0,5.0,1.0,-4.0,-2.0,-2.0,-1.0
0.04,-3.0,-1.0,14.0,3.0,0.0,1.0,-1.0,-1.0,-0.35284423828125,-0.4554443359375,0.73260498046875,0.36236572265625,-0.1748046875,-0.95263671875,0.3388671875,0.75,1.1875,2.625
0.045,-1.0,2.0,3.0,7.0,3.0,1.0,0.0,-1.0,-0.353515625,-0.4547119140625,0.73291015625,0.36212158203125,-0.189453125,-0.93994140625,0.33984375,1.0625,1.4375,3.0625
0.05,1.0,0.0,-2.0,-3.0,0.0,1.0,-2.0,0.0,-0.35382080078125,-0.45440673828125,0.7330322265625,0.36187744140625,-0.189453125,-0.9365234375,0.33251953125,0.875,1.0,3.0
0.055,1.0,0.0,-6.0,-6.0,-3.0,-1.0,1.0,1.0,-0.35406494140625,-0.4541015625,0.73321533203125,0.36163330078125,-0.1943359375,-0.93994140625,0.34130859375,0.9375,0.625,2.4375
0.06,-1.0,0.0,5.0,3.0,1.0,-1.0,0.0,-1.0,-0.35406494140625,-0.45367431640625,0.73358154296875,0.3614501953125,-0.19775390625,-0.93505859375,0.34765625,1.875,-0.1875,2.0625
0.065,-1.0,-3.0,0.0,-4.0,-1.0,-3.0,-1.0,-1.0,-0.35400390625,-0.45343017578125,0.73382568359375,0.36126708984375,-0.19873046875,-0.94287109375,0.3408203125,1.75,-0.9375,1.5625
0.07,-2.0,-1.0,3.0,-6.0,-3.0,-3.0,-3.0,-2.0,-0.35382080078125,-0.4532470703125,0.73406982421875,0.361328125,-0.189453125,-0.9423828125,0.34765625,1.875,-0.5625,0.5
0.075,0.0,-1.0,5.0,3.0,0.0,-3.0,-3.0,-3.0,-0.35345458984375,-0.45281982421875,0.73443603515625,0.3614501953125,-0.203125,-0.93212890625,0.34326171875,0.9375,-1.0625,-0.3125
0.08,-3.0,1.0,1.0,-9.0,-4.0,-4.0,-1.0,-1.0,-0.35345458984375,-0.4527587890625,0.73443603515625,0.3614501953125,-0.201171875,-0.9453125,0.35693359375,-0.9375,-0.625,-0.625
0.085,-2.0,-2.0,5.0,2.0,-1.0,-1.0,-2.0,-1.0,-0.35369873046875,-0.4522705078125,0.73455810546875,0.36151123046875,-0.2060546875,-0.9384765625,0.3525390625,1.4375,1.8125,0.75
0.09,0.0,-1.0,4.0,-3.0,-1.0,1.0,-4.0,-1.0
0.095,0.0,-2.0,-2.0,-8.0,-3.0,-1.0,-2.0,-1.0,-0.3541259765625,-0.45196533203125,0.734619140625,0.3614501953125,-0.19873046875,-0.9453125,0.35498046875,0.25,2.3125,2.0
0.1,-1.0,-1.0,-3.0,-1.0,-2.0,-1.0,-1.0,-1.0,-0.3546142578125,-0.4515380859375,0.734619140625,0.3614501953125,-0.19580078125,-0.9462890625,0.35107421875,0.4375,2.875,2.4375
0.105,0.0,-1.0,2.0,10.0,1.0,1.0,1.0,-1.0,-0.3551025390625,-0.4512939453125,0.73455810546875,0.36138916015625,-0.201171875,-0.94677734375,0.35302734375,-0.5,2.5,2.0
0.11,0.0,0.0,2.0,2.0,1.0,1.0,1.0,2.0,-0.35552978515625,-0.4512939453125,0.73443603515625,0.36126708984375,-0.19873046875,-0.95556640625,0.349609375,-1.125,1.6875,1.4375
0.115,0.0,-1.0,-5.0,-7.0,-2.0,-6.0,-5.0,-3.0,-0.355712890625,-0.45123291015625,0.73431396484375,0.36138916015625,-0.19921875,-0.95263671875,0.3505859375,-0.0625,1.4375,0.0625
0.12,-1.0,-4.0,2.0,4.0,-2.0,-2.0,0.0,-1.0,-0.355712890625,-0.450927734375,0.734375,0.36163330078125,-0.20361328125,-0.94384765625,0.34130859375,2.125,1.0625,-0.1875
0.125,0.0,-1.0,9.0,2.0,-1.0,-1.0,-1.0,-1.0,-0.355712890625,-0.45074462890625,0.73443603515625,0.36175537109375,-0.1982421875,-0.93212890625,0.34423828125,1.125,0.75,-0.25
0.13,-1.0,1.0,6.0,-2.0,1.0,0.0,-1.0,-3.0,-0.355712890625,-0.45074462890625,0.73443603515625,0.36181640625,-0.19091796875,-0.9423828125,0.353515625,0.9375,0.75,-0.8125
0.135,-1.0,-1.0,-3.0,0.0,-4.0,1.0,-1.0,-2.0,-0.35546875,-0.4505615234375,0.7344970703125,0.3621826171875,-0.1796875,-0.94189453125,0.3505859375,2.125,0.6875,-0.375
0.14,-2.0,1.0,-2.0,-1.0,-1.0,-1.0,0.0,-1.0,-0.35540771484375,-0.4500732421875,0.734619140625,0.362548828125,-0.18310546875,-0.93310546875,0.34765625,3.0,1.875,0.625
0.145,-2.0,-2.0,0.0,-3.0,-3.0,-3.0,-1.0,-2.0,-0.3555908203125,-0.44970703125,0.73468017578125,0.36260986328125,-0.21142578125,-0.9384765625,0.3603515625,0.0625,0.9375,0.25
0.15,0.0,-1.0,-2.0,7.0,0.0,1.0,1.0,-1.0
0.155,-1.0,1.0,8.0,-2.0,-1.0,-2.0,-1.0,-1.0,-0.3555908203125,-0.44970703125,0.73468017578125,0.36260986328125,-0.203125,-0.951171875,0.35546875,0.4375,0.5,0.0625
0.16,-1.0,-1.0,-3.0,-7.0,-1.0,-4.0,-1.0,-1.0,-0.35546875,-0.448974609375,0.73480224609375,0.36346435546875,-0.201171875,-0.93017578125,0.35546875,2.1875,1.6875,-1.25
0.165,0.0,-1.0,-1.0,0.0,2.0,2.0,3.0,1.0
0.17,-1.0,-1.0,0.0,5.0,-2.0,1.0,0.0,0.0,-0.35565185546875,-0.4488525390625,0.7347412109375,0.363525390625,-0.20947265625,-0.9296875,0.3525390625,-0.5,1.3125,-0.5625
0.175,-2.0,1.0,12.0,4.0,1.0,-2.0,-2.0,-1.0,-0.35601806640625,-0.44891357421875,0.7344970703125,0.36358642578125,-0.21044921875,-0.94287109375,0.3544921875,-1.5625,1.6875,-0.625
0.18,-1.0,0.0,6.0,4.0,-1.0,0.0,-1.0,-1.0,-0.35626220703125,-0.44879150390625,0.7342529296875,0.36395263671875,-0.20361328125,-0.94580078125,0.36572265625,-0.8125,2.875,-1.0625
0.185,-1.0,-2.0,-11.0,-13.0,-3.0,-2.0,-2.0,-1.0,-0.35693359375,-0.44879150390625,0.73382568359375,0.36419677734375,-0.205078125,-0.94140625,0.36083984375,-2.5625,4.3125,-0.375
0.19,-3.0,-3.0,-3.0,6.0,0.0,-1.0,-2.0,-1.0,-0.35791015625,-0.44903564453125,0.73321533203125,0.36419677734375,-0.20458984375,-0.9541015625,0.35791015625,-5.0625,4.75,0.625
0.195,1.0,-2.0,-3.0,-8.0,-2.0,-2.0,-3.0,-2.0,-0.35882568359375,-0.44940185546875,0.73248291015625,0.3643798828125,-0.1923828125,-0.96240234375,0.349609375,-4.5625,5.4375,0.375
0.2,-2.0,-1.0,-4.0,4.0,2.0,-1.0,-5.0,-1.0,-0.3594970703125,-0.44952392578125,0.7318115234375,0.36492919921875,-0.17529296875,-0.955078125,0.35302734375,-2.875,6.25,-0.4375
0.205,1.0,2.0,6.0,2.0,-2.0,-2.0,0.0,-1.0,-0.3604736328125,-0.4495849609375,0.73095703125,0.3656005859375,-0.1787109375,-0.94482421875,0.35107421875,-3.8125,7.875,-0.6875
0.21,0.0,-3.0,1.0,-6.0,-4.0,-1.0,-1.0,0.0,-0.36163330078125,-0.449462890625,0.73004150390625,0.3663330078125,-0.19384765625,-0.9423828125,0.35888671875,-3.75,9.5,-0.875
0.215,1.0,1.0,1.0,-2.0,0.0,-2.0,-3.0,-1.0,-0.36297607421875,-0.4490966796875,0.7293701171875,0.36676025390625,-0.2109375,-0.9296875,0.35595703125,-3.4375,9.0,0.25
0.22,0.0,-1.0,2.0,8.0,-1.0,-2.0,0.0,0.0,-0.365478515625,-0.44921875,0.72808837890625,0.36669921875,-0.2041015625,-0.94580078125,0.33837890625,-5.0625,5.625,1.75
0.225,-1.0,-2.0,-7.0,-4.0,-2.0,3.0,3.0,-1.0
0.23,-8.0,-1.0,-1.0,0.0,-1.0,-2.0,-1.0,-3.0,-0.36688232421875,-0.44842529296875,0.7275390625,0.36737060546875,-0.205078125,-0.9365234375,0.32568359375,2.4375,5.0,0.9375
0.235,2.0,1.0,4.0,1.0,-3.0,0.0,-2.0,-1.0,-0.36761474609375,-0.4481201171875,0.727294921875,0.3675537109375,-0.20654296875,-0.93994140625,0.31494140625,0.5,4.375,1.5
0.24,-3.0,-5.0,-13.0,3.0,-1.0,-4.0,-2.0,-2.0,-0.3692626953125,-0.44805908203125,0.72650146484375,0.36749267578125,-0.21826171875,-0.947265625,0.32421875,-1.4375,3.8125,1.0625
0.245,1.0,1.0,-2.0,-2.0,0.0,0.0,0.0,1.0,-0.369873046875,-0.44793701171875,0.726318359375,0.367431640625,-0.22021484375,-0.94677734375,0.32470703125,-0.625,2.8125,1.125
0.25,1.0,0.0,1.0,-5.0,-4.0,-3.0,0.0,0.0,-0.37042236328125,-0.4478759765625,0.72613525390625,0.36737060546875,-0.228515625,-0.9521484375,0.32568359375,-1.0625,2.25,0.5
0.255,2.0,-1.0,1.0,-7.0,-1.0,-1.0,0.0,-2.0,-0.3707275390625,-0.44769287109375,0.7259521484375,0.3675537109375,-0.2177734375,-0.9482421875,0.3330078125,0.0,2.25,0.0
0.26,-3.0,-2.0,-5.0,-1.0,2.0,0.0,-2.0,-2.0,-0.37091064453125,-0.44708251953125,0.72613525390625,0.3677978515625,-0.22314453125,-0.94140625,0.33203125,3.0,1.9375,0.3125
0.265,-1.0,0.0,1.0,3.0,1.0,-1.0,-1.0,-2.0,-0.37127685546875,-0.44677734375,0.72625732421875,0.36761474609375,-0.2294921875,-0.9365234375,0.328125,0.5625,1.125,1.5625
0.27,-1.0,0.0,-1.0,-4.0,-1.0,1.0,0.0,0.0,-0.37200927734375,-0.4471435546875,0.7259521484375,0.366943359375,-0.2099609375,-0.9443359375,0.32470703125,-1.625,0.3125,2.125
0.275,-3.0,0.0,-6.0,-7.0,-2.0,-3.0,-3.0,-2.0,-0.37225341796875,-0.44708251953125,0.72607421875,0.3665771484375,-0.2216796875,-0.94482421875,0.326171875,-0.5,-0.3125,2.4375
0.28,-1.0,-2.0,5.0,-2.0,-1.0,0.0,-2.0,-1.0,-0.37237548828125,-0.4471435546875,0.72613525390625,0.36614990234375,-0.2275390625,-0.95703125,0.33349609375,-1.25,-1.125,1.625
0.285,-2.0,-3.0,-17.0,-5.0,-2.0,-1.0,-1.0,0.0,-0.3720703125,-0.447021484375,0.7264404296875,0.3660888671875,-0.22021484375,-0.96142578125,0.3310546875,2.125,-1.875,0.5
0.29,-2.0,-1.0,3.0,1.0,1.0,0.0,1.0,1.0
0.295,-1.0,1.0,4.0,-1.0,-2.0,-1.0,-3.0,-1.0,-0.37158203125,-0.4464111328125,0.72698974609375,0.3662109375,-0.21875,-0.92919921875,0.3408203125,4.4375,-1.4375,0.125
0.3,0.0,-1.0,-1.0,-1.0,-2.0,-3.0,0.0,0.0,-0.37139892578125,-0.44635009765625,0.72723388671875,0.3660888671875,-0.22021484375,-0.92822265625,0.32958984375,0.875,-1.625,0.625
0.305,-1.0,-3.0,-10.0,-6.0,-3.0,-3.0,2.0,-2.0,-0.371337890625,-0.44659423828125,0.72723388671875,0.36572265625,-0.2109375,-0.94580078125,0.33349609375,-1.875,-1.3125,1.125
0.31,8.0,8.0,0.0,6.0,-1.0,0.0,-2.0,1.0,-0.37139892578125,-0.44683837890625,0.7271728515625,0.3656005859375,-0.2099609375,-0.95458984375,0.3359375,-1.4375,-0.5,0.875
0.315,-2.0,0.0,3.0,5.0,-3.0,-3.0,-4.0,0.0,-0.37139892578125,-0.44683837890625,0.7271728515625,0.3656005859375,-0.216796875,-0.9619140625,0.33935546875,-0.3125,0.3125,0.9375
0.32,-1.0,-2.0,-2.0,-4.0,0.0,0.0,-1.0,-2.0,-0.37109375,-0.44610595703125,0.7275390625,0.365966796875,-0.20361328125,-0.951171875,0.34228515625,3.1875,0.8125,0.625
0.325,-3.0,-2.0,3.0,3.0,0.0,1.0,1.0,-1.0,-0.37091064453125,-0.4456787109375,0.72772216796875,0.3663330078125,-0.203125,-0.93798828125,0.35009765625,2.625,1.1875,0.0625
0.33,7.0,-2.0,3.0,-4.0,-4.0,-4.0,-3.0,0.0,-0.37109375,-0.445556640625,0.727783203125,0.3660888671875,-0.22021484375,-0.95556640625,0.32958984375,-1.125,-0.25,1.25
0.335,-2.0,0.0,6.0,8.0,-2.0,-2.0,-3.0,1.0
0.34,-3.0,-12.0,11.0,5.0,-6.0,-3.0,-2.0,-2.0,-0.37109375,-0.44549560546875,0.727783203125,0.36627197265625,-0.1962890625,-0.95654296875,0.34326171875,0.4375,1.0,0.9375
0.345,-1.0,-1.0,-20.0,-17.0,-4.0,-5.0,-4.0,-5.0,-0.37109375,-0.4447021484375,0.7281494140625,0.36651611328125,-0.22509765625,-0.94970703125,0.330078125,2.25,0.125,1.375
0.35,-3.0,5.0,30.0,26.0,0.0,0.0,-1.0,1.0,-0.37127685546875,-0.44451904296875,0.728271484375,0.36627197265625,-0.2265625,-0.97509765625,0.31103515625,2.5625,-0.3125,1.9375
0.355,1.0,6.0,20.0,2.0,6.0,2.0,2.0,2.0
0.36,-2.0,8.0,8.0,-9.0,-5.0,-1.0,-3.0,-2.0,-0.3707275390625,-0.44317626953125,0.7291259765625,0.36676025390625,-0.22900390625,-0.96728515625,0.33154296875,11.25,-0.6875,1.25
0.365,2.0,-1.0,-25.0,-14.0,2.0,3.0,1.0,2.0,-0.3699951171875,-0.44085693359375,0.73046875,0.3675537109375,-0.23291015625,-0.94970703125,0.34765625,16.5,1.0,1.9375
0.37,-14.0,0.0,-26.0,-12.0,-1.0,2.0,1.0,-4.0,-0.36944580078125,-0.438232421875,0.7318115234375,0.36871337890625,-0.23388671875,-0.94287109375,0.3701171875,16.8125,3.3125,1.375
0.375,1.0,-6.0,4.0,-13.0,-3.0,-4.0,-1.0,-1.0,-0.3685302734375,-0.43359375,0.7342529296875,0.3702392578125,-0.26953125,-0.9560546875,0.34912109375,19.8125,-1.125,1.125
0.38,-5.0,-8.0,-22.0,8.0,0.0,-2.0,-5.0,-4.0
0.385,5.0,1.0,23.0,13.0,-2.0,0.0,2.0,5.0,-0.367431640625,-0.430908203125,0.736083984375,0.37078857421875,-0.24853515625,-0.9326171875,0.357421875,20.1875,-2.125,3.25
0.39,-5.0,-5.0,22.0,-9.0,-6.0,-8.0,-6.0,-4.0
0.395,1.0,10.0,-21.0,-13.0,-5.0,-2.0,2.0,11.0,-0.36492919921875,-0.42620849609375,0.7388916015625,0.37310791015625,-0.22900390625,-0.95068359375,0.37890625,18.5625,0.125,-1.5
0.4,-3.0,-7.0,-19.0,-4.0,0.0,-3.0,-5.0,-9.0
0.405,-7.0,-9.0,4.0,-3.0,-6.0,-6.0,-3.0,-6.0,-0.36407470703125,-0.42364501953125,0.74005126953125,0.3746337890625,-0.22998046875,-0.93896484375,0.384765625,19.375,3.0,-0.5
0.41,5.0,-3.0,-12.0,-12.0,-6.0,-1.0,-2.0,0.0,-0.36322021484375,-0.4185791015625,0.74169921875,0.3778076171875,-0.2578125,-0.927734375,0.38818359375,16.25,4.3125,-2.0625
0.415,0.0,14.0,62.0,27.0,1.0,0.0,0.0,-1.0
0.42,-1.0,-4.0,0.0,-49.0,-4.0,-2.0,0.0,4.0,-0.36248779296875,-0.4163818359375,0.74267578125,0.37896728515625,-0.2314453125,-0.92724609375,0.39306640625,16.375,2.375,0.0
0.425,6.0,8.0,40.0,40.0,10.0,6.0,3.0,2.0,-0.36151123046875,-0.41387939453125,0.74371337890625,0.38055419921875,-0.21142578125,-0.88671875,0.3896484375,18.8125,3.0,-1.1875
0.43,-8.0,-18.0,-70.0,-1.0,-2.0,-6.0,-5.0,-9.0,-0.3612060546875,-0.4122314453125,0.74407958984375,0.3819580078125,-0.2265625,-0.89501953125,0.40087890625,11.3125,4.625,-2.8125
0.435,3.0,5.0,18.0,22.0,12.0,4.0,2.0,1.0,-0.36077880859375,-0.41094970703125,0.74420166015625,0.38348388671875,-0.2138671875,-0.8974609375,0.39892578125,10.1875,4.3125,-3.875
0.44,1.0,10.0,-21.0,-13.0,-5.0,-2.0,2.0,11.0,-0.3599853515625,-0.40972900390625,0.74420166015625,0.3856201171875,-0.22265625,-0.89794921875,0.396484375,1.375,1.0,-4.4375
0.445,-9.0,-13.0,-56.0,-21.0,-24.0,-10.0,-7.0,-5.0,-0.35955810546875,-0.4100341796875,0.7437744140625,0.386474609375,-0.2060546875,-0.90087890625,0.40380859375,0.75,0.875,-5.3125
0.45,9.0,39.0,53.0,93.0,37.0,13.0,7.0,6.0
0.455,-16.0,-52.0,-6.0,-29.0,0.0,-2.0,-6.0,-10.0,-0.3592529296875,-0.4102783203125,0.7430419921875,0.387939453125,-0.2021484375,-0.88720703125,0.41357421875,0.375,3.3125,-8.125
0.46,-18.0,-41.0,-45.0,-54.0,-5.0,-6.0,-9.0,-12.0,-0.35833740234375,-0.40972900390625,0.74237060546875,0.3905029296875,-0.2119140625,-0.8466796875,0.43505859375,5.125,5.4375,-14.125
0.465,-17.0,-32.0,-40.0,-53.0,-31.0,-19.0,-13.0,-13.0,-0.35650634765625,-0.4111328125,0.7396240234375,0.39599609375,-0.171875,-0.8671875,0.43505859375,-1.1875,4.0,-16.6875
0.47,3.0,-38.0,-79.0,-37.0,10.0,-1.0,-2.0,-3.0,-0.3570556640625,-0.41326904296875,0.73724365234375,0.39776611328125,-0.13427734375,-0.89794921875,0.423828125,-13.5,8.625,-11.9375
0.475,24.0,50.0,3.0,65.0,10.0,13.0,13.0,16.0,-0.3582763671875,-0.4150390625,0.73486328125,0.399169921875,-0.17333984375,-0.88330078125,0.44189453125,-16.125,10.4375,-10.9375
0.48,1.0,41.0,63.0,32.0,-10.0,-3.0,-6.0,-3.0,-0.362060546875,-0.42071533203125,0.727783203125,0.40277099609375,-0.17919921875,-0.95263671875,0.37255859375,-21.375,14.9375,-19.0625
0.485,-28.0,3.0,78.0,23.0,-43.0,-32.0,-26.0,-17.0
0.49,-19.0,-6.0,37.0,48.0,22.0,0.0,-8.0,-15.0,-0.3642578125,-0.4237060546875,0.7232666015625,0.40576171875,-0.11572265625,-0.94287109375,0.3681640625,-20.9375,20.5,-19.3125
0.495,-1.0,0.0,40.0,26.0,-25.0,-7.0,0.0,-3.0,-0.3670654296875,-0.426025390625,0.7188720703125,0.40863037109375,-0.1669921875,-0.92529296875,0.37890625,-21.3125,22.8125,-19.25
0.5,4.0,38.0,45.0,75.0,98.0,31.0,8.0,11.0,-0.37127685546875,-0.42987060546875,0.7135009765625,0.4102783203125,-0.1953125,-0.90380859375,0.3515625,-35.5,22.875,-18.5
0.505,-3.0,-8.0,28.0,74.0,29.0,1.0,-7.0,-6.0,-0.37567138671875,-0.43499755859375,0.707275390625,0.41156005859375,-0.17333984375,-0.9443359375,0.3447265625,-43.6875,22.5,-19.5625
0.51,-11.0,-21.0,1.0,-128.0,-71.0,-25.0,-14.0,-14.0,-0.38037109375,-0.439453125,0.70135498046875,0.4127197265625,-0.1455078125,-0.95361328125,0.3388671875,-41.9375,25.0,-14.875
0.515,-4.0,-6.0,-27.0,-21.0,14.0,8.0,4.0,-9.0,-0.38482666015625,-0.44354248046875,0.69549560546875,0.41400146484375,-0.14990234375,-0.97265625,0.330078125,-39.5,24.875,-15.0625
0.52,1.0,-26.0,7.0,-28.0,0.0,3.0,-1.0,-4.0,-0.3890380859375,-0.44708251953125,0.69000244140625,0.41546630859375,-0.1650390625,-0.99560546875,0.3388671875,-36.5,24.5625,-15.4375
0.525,0.0,-13.0,15.0,-50.0,-50.0,-16.0,-8.0,-1.0,-0.39215087890625,-0.4490966796875,0.68597412109375,0.4171142578125,-0.15966796875,-0.98876953125,0.32958984375,-23.75,21.1875,-11.625
0.53,5.0,-48.0,-76.0,-29.0,26.0,12.0,10.0,8.0,-0.3951416015625,-0.4503173828125,0.68304443359375,0.417724609375,-0.15576171875,-0.9599609375,0.31298828125,-20.1875,17.6875,-3.9375
0.535,-4.0,9.0,23.0,-90.0,-14.0,4.0,3.0,1.0,-0.398193359375,-0.4515380859375,0.6806640625,0.41748046875,-0.17724609375,-0.9775390625,0.32666015625,-21.6875,14.1875,0.125
0.54,21.0,-17.0,-27.0,51.0,17.0,3.0,3.0,10.0,-0.40045166015625,-0.451904296875,0.67919921875,0.417236328125,-0.23095703125,-0.97802734375,0.3095703125,-13.3125,9.75,-1.5625
0.545,3.0,14.0,-95.0,-8.0,18.0,0.0,6.0,11.0,-0.40155029296875,-0.45263671875,0.6776123046875,0.41802978515625,-0.18896484375,-0.95751953125,0.27197265625,-7.875,7.6875,-7.1875
0.55,-8.0,-13.0,-43.0,-91.0,-6.0,7.0,3.0,1.0,-0.4024658203125,-0.45428466796875,0.67547607421875,0.41876220703125,-0.111328125,-0.9208984375,0.26123046875,-12.8125,7.5,-6.375
0.555,16.0,76.0,43.0,28.0,4.0,0.0,1.0,9.0,-0.40447998046875,-0.45623779296875,0.67315673828125,0.41839599609375,-0.13427734375,-0.95947265625,0.2607421875,-19.5625,8.0,-1.3125
0.56,8.0,48.0,100.0,127.0,45.0,11.0,6.0,14.0,-0.40625,-0.4576416015625,0.67120361328125,0.4183349609375,-0.15771484375,-0.99267578125,0.25537109375,-14.8125,7.75,-2.4375
0.565,-6.0,10.0,-4.0,83.0,33.0,4.0,-2.0,-5.0,-0.4068603515625,-0.4578857421875,0.6700439453125,0.41925048828125,-0.1826171875,-0.97705078125,0.26171875,-3.5625,6.5,-6.4375
0.57,-15.0,13.0,90.0,55.0,-10.0,-9.0,-4.0,2.0,-0.407470703125,-0.4591064453125,0.6683349609375,0.42010498046875,-0.17138671875,-0.96533203125,0.2392578125,-4.375,1.6875,-4.125
0.575,-9.0,3.0,38.0,33.0,-12.0,-5.0,-7.0,-16.0,-0.40771484375,-0.46026611328125,0.66741943359375,0.42010498046875,-0.1435546875,-0.974609375,0.24853515625,-7.625,0.8125,-3.0
0.58,-19.0,-28.0,17.0,-45.0,-9.0,-1.0,1.0,-1.0,-0.40802001953125,-0.46087646484375,0.66680908203125,0.420166015625,-0.1591796875,-0.98681640625,0.25146484375,-4.5625,1.125,-2.1875
0.585,9.0,24.0,3.0,15.0,-15.0,-5.0,-4.0,10.0,-0.40740966796875,-0.4598388671875,0.6678466796875,0.420166015625,-0.181640625,-1.009765625,0.25244140625,6.0625,-2.875,3.1875
0.59,8.0,2.0,-31.0,3.0,3.0,0.0,-2.0,3.0
0.595,2.0,12.0,-53.0,-19.0,-1.0,-5.0,-7.0,-9.0,-0.40765380859375,-0.46044921875,0.66815185546875,0.41876220703125,-0.17529296875,-1.01416015625,0.2431640625,-4.125,-5.3125,4.8125
0.6,8.0,-2.0,-13.0,-18.0,-5.0,-2.0,0.0,-1.0,-0.40765380859375,-0.46038818359375,0.66845703125,0.4183349609375,-0.1494140625,-1.03564453125,0.27880859375,-1.25,-0.9375,4.0
0.605,-20.0,1.0,-9.0,-6.0,-10.0,-13.0,-16.0,-13.0,-0.4071044921875,-0.45843505859375,0.6700439453125,0.41851806640625,-0.1875,-1.01025390625,0.2734375,12.5,-0.9375,5.25
0.61,-1.0,-42.0,-72.0,-70.0,-13.0,-4.0,2.0,4.0,-0.40643310546875,-0.45550537109375,0.6719970703125,0.41912841796875,-0.13623046875,-0.95556640625,0.2919921875,17.25,2.5,9.3125
0.615,39.0,10.0,-14.0,-5.0,-6.0,-7.0,-7.0,6.0,-0.40771484375,-0.45489501953125,0.67193603515625,0.41876220703125,-0.07080078125,-0.98974609375,0.31689453125,-5.375,8.0,12.75
0.62,36.0,5.0,3.0,6.0,-6.0,8.0,3.0,6.0,-0.40869140625,-0.45208740234375,0.673583984375,0.41815185546875,-0.21630859375,-1.0068359375,0.31787109375,8.0,4.8125,13.1875
0.625,-17.0,8.0,30.0,2.0,-3.0,-10.0,-14.0,-6.0,-0.40704345703125,-0.44207763671875,0.68109130859375,0.41827392578125,-0.2021484375,-0.947265625,0.3212890625,30.75,-3.125,19.625
0.63,-14.0,-14.0,-22.0,2.0,3.0,9.0,-6.0,-12.0,-0.40911865234375,-0.4398193359375,0.68267822265625,0.41607666015625,-0.1796875,-0.91455078125,0.2978515625,0.9375,4.875,23.25
0.635,8.0,-22.0,44.0,13.0,-2.0,-4.0,2.0,8.0
0.64,-17.0,16.0,1.0,-4.0,7.0,-1.0,-12.0,9.0,-0.41064453125,-0.4383544921875,0.684326171875,0.41339111328125,-0.2353515625,-1.00244140625,0.30078125,-0.1875,-1.75,20.125
0.645,-43.0,3.0,-8.0,8.0,2.0,-4.0,-6.0,-21.0,-0.41278076171875,-0.433349609375,0.68817138671875,0.41009521484375,-0.21142578125,-0.99462890625,0.3408203125,13.875,1.4375,15.4375
0.65,24.0,-5.0,13.0,7.0,0.0,0.0,0.0,-6.0
0.655,10.0,-26.0,-10.0,-40.0,-10.0,0.0,5.0,16.0,-0.41253662109375,-0.43023681640625,0.68975830078125,0.4110107421875,-0.22705078125,-0.92578125,0.314453125,17.3125,5.0,6.125
0.66,-42.0,-8.0,-43.0,6.0,-6.0,-9.0,-9.0,-15.0,-0.41510009765625,-0.427734375,0.69134521484375,0.4083251953125,-0.2783203125,-0.884765625,0.24267578125,-4.75,-2.125,12.875
0.665,30.0,3.0,-9.0,6.0,1.0,0.0,2.0,6.0
0.67,10.0,-3.0,-41.0,4.0,1.0,3.0,2.0,10.0,-0.4158935546875,-0.42950439453125,0.69146728515625,0.405517578125,-0.22021484375,-0.95751953125,0.22265625,-10.5625,-8.875,9.75
0.675,29.0,26.0,28.0,-6.0,0.0,2.0,3.0,5.0,-0.4173583984375,-0.4310302734375,0.69073486328125,0.403564453125,-0.2041015625,-0.994140625,0.22607421875,-11.1875,-1.3125,8.625
0.68,-0.41925048828125,-0.4324951171875,0.689453125,0.40228271484375,-0.2333984375,-1.02880859375,0.23876953125,-12.125,3.375,4.5625
0.685,-49.0,-21.0,2.0,-2.0,0.0,-3.0,3.0,35.0,-0.4210205078125,-0.4322509765625,0.688720703125,0.40191650390625,-0.2646484375,-0.9560546875,0.2255859375,-2.5625,6.875,3.125
0.69,3.0,-8.0,4.0,-5.0,-3.0,-4.0,-4.0,-2.0,-0.42169189453125,-0.43145751953125,0.68902587890625,0.40155029296875,-0.24853515625,-0.94189453125,0.22802734375,4.5,1.875,4.625
0.695,-3.0,8.0,21.0,3.0,0.0,1.0,-2.0,-15.0,-0.421875,-0.43072509765625,0.68951416015625,0.40130615234375,-0.20458984375,-0.93310546875,0.2607421875,3.75,1.0,6.6875
0.7,-20.0,-13.0,20.0,-3.0,0.0,-3.0,-1.0,10.0,-0.4217529296875,-0.430419921875,0.69012451171875,0.40069580078125,-0.251953125,-0.8974609375,0.30126953125,-0.8125,-2.625,2.5
0.705,-8.0,0.0,0.0,15.0,3.0,-1.0,1.0,6.0,-0.42236328125,-0.43255615234375,0.6890869140625,0.39959716796875,-0.263671875,-0.8896484375,0.23974609375,-14.125,-3.6875,-4.125
0.71,4.0,-16.0,-17.0,-11.0,-3.0,-1.0,1.0,1.0,-0.4239501953125,-0.43634033203125,0.6871337890625,0.39715576171875,-0.23828125,-0.955078125,0.1962890625,-24.8125,-4.75,-0.125
0.715,-1.0,-2.0,-8.0,-3.0,-2.0,-1.0,1.0,2.0,-0.42401123046875,-0.43939208984375,0.68634033203125,0.39501953125,-0.20703125,-1.05078125,0.2197265625,-15.0625,-10.25,3.1875
0.72,-4.0,0.0,-8.0,3.0,-3.0,-1.0,0.0,3.0,-0.4195556640625,-0.4375,0.69012451171875,0.395263671875,-0.2431640625,-0.95263671875,0.22705078125,24.0625,-11.75,-0.75
0.725,1.0,0.0,6.0,0.0,-4.0,-5.0,1.0,0.0
0.73,3.0,-5.0,-2.0,-21.0,-8.0,-2.0,-2.0,-1.0,-0.4163818359375,-0.4373779296875,0.69189453125,0.39569091796875,-0.22509765625,-0.8623046875,0.2275390625,14.625,-16.5625,-6.125
0.735,-1.0,-2.0,0.0,0.0,-1.0,-2.0,-3.0,-2.0,-0.412109375,-0.442138671875,0.693115234375,0.39276123046875,-0.20947265625,-0.9501953125,0.2451171875,-4.5,-18.375,-1.5
0.74,1.0,-5.0,-7.0,-6.0,-1.0,-2.0,-2.0,-2.0
0.745,-2.0,-4.0,-1.0,-2.0,1.0,-1.0,-2.0,-1.0,-0.4091796875,-0.44317626953125,0.6944580078125,0.3922119140625,-0.1962890625,-0.97900390625,0.25732421875,6.375,-18.5,-2.3125
0.75,-8.0,20.0,46.0,10.0,-3.0,-3.0,-3.0,2.0,-0.4019775390625,-0.4423828125,0.69818115234375,0.39404296875,-0.2236328125,-0.955078125,0.31396484375,16.0625,-15.0625,-7.875
0.755,4.0,-7.0,-8.0,6.0,3.0,2.0,0.0,-1.0,-0.3983154296875,-0.44219970703125,0.69976806640625,0.39508056640625,-0.17626953125,-0.88720703125,0.31884765625,12.6875,-14.3125,-8.125
0.76,1.0,-7.0,-3.0,-6.0,-2.0,0.0,-1.0,-2.0,-0.3958740234375,-0.44342041015625,0.699951171875,0.39581298828125,-0.14892578125,-0.85400390625,0.30712890625,0.0625,-9.75,-9.125
0.765,15.0,-9.0,-13.0,2.0,3.0,0.0,-1.0,4.0,-0.39385986328125,-0.44879150390625,0.69866943359375,0.39410400390625,-0.16650390625,-0.97119140625,0.32275390625,-15.125,-9.375,-3.5
0.77,0.0,-3.0,-12.0,0.0,-2.0,-1.0,0.0,0.0
0.775,6.0,12.0,-8.0,4.0,-4.0,-3.0,-5.0,-2.0,-0.39276123046875,-0.45013427734375,0.698486328125,0.39398193359375,-0.15478515625,-1.0078125,0.32470703125,-4.625,-6.125,-2.25
0.78,1.0,6.0,3.0,1.0,2.0,0.0,0.0,-2.0,-0.390380859375,-0.45037841796875,0.69921875,0.39471435546875,-0.18505859375,-0.94677734375,0.30029296875,3.3125,-4.0,-3.0
0.785,11.0,-7.0,-5.0,0.0,-2.0,-1.0,2.0,4.0,-0.3896484375,-0.45098876953125,0.6993408203125,0.39459228515625,-0.1982421875,-0.94091796875,0.302734375,-1.6875,-4.75,-3.0
0.79,9.0,-5.0,-9.0,3.0,0.0,-1.0,-1.0,6.0,-0.3887939453125,-0.45330810546875,0.6988525390625,0.3935546875,-0.18359375,-0.99609375,0.31689453125,-5.75,-4.6875,-0.4375
0.795,-10.0,-4.0,3.0,-8.0,1.0,2.0,-1.0,-4.0,-0.38824462890625,-0.45361328125,0.69903564453125,0.39349365234375,-0.1923828125,-1.00634765625,0.31494140625,-0.1875,-3.0625,-0.9375
0.8,1.0,9.0,1.0,4.0,4.0,0.0,-4.0,1.0,-0.3878173828125,-0.4534912109375,0.69915771484375,0.39385986328125,-0.1943359375,-0.96875,0.314453125,1.25,-0.6875,-2.625
0.805,-3.0,2.0,-22.0,-12.0,-7.0,-3.0,-4.0,-4.0,-0.38775634765625,-0.4534912109375,0.69903564453125,0.39410400390625,-0.20556640625,-0.95654296875,0.3193359375,-1.375,0.5,-2.5
0.81,3.0,-2.0,5.0,2.0,-1.0,0.0,0.0,-2.0,-0.3878173828125,-0.453857421875,0.69891357421875,0.39385986328125,-0.20654296875,-0.97314453125,0.31982421875,-3.8125,-0.9375,-0.6875
0.815,1.0,-2.0,5.0,0.0,-1.0,-1.0,-1.0,1.0,-0.38775634765625,-0.45428466796875,0.69873046875,0.3936767578125,-0.18603515625,-0.99658203125,0.31201171875,-3.1875,-0.875,-0.375
0.82,10.0,-2.0,1.0,3.0,-1.0,0.0,0.0,2.0,-0.38775634765625,-0.45428466796875,0.69879150390625,0.3936767578125,-0.203125,-1.00390625,0.31298828125,0.625,0.0625,-0.125
0.825,2.0,5.0,10.0,-8.0,-3.0,-1.0,-1.0,1.0,-0.3875732421875,-0.45330810546875,0.69927978515625,0.39410400390625,-0.20166015625,-0.978515625,0.322265625,5.0,1.25,0.5
0.83,-7.0,-10.0,11.0,-6.0,-3.0,-1.0,-1.0,-3.0,-0.38812255859375,-0.452392578125,0.6993408203125,0.39447021484375,-0.18798828125,-0.953125,0.30322265625,-1.6875,3.3125,1.0625
0.835,1.0,-1.0,-8.0,1.0,-1.0,-3.0,-3.0,-1.0,-0.38909912109375,-0.452880859375,0.69879150390625,0.39398193359375,-0.20068359375,-0.9609375,0.28662109375,-6.625,2.3125,1.5
0.84,-2.0,2.0,6.0,2.0,3.0,-1.0,-2.0,-3.0,-0.39007568359375,-0.453369140625,0.69818115234375,0.39349365234375,-0.197265625,-0.99609375,0.287109375,-5.6875,2.75,2.3125
0.845,-2.0,-4.0,-1.0,0.0,-3.0,-2.0,-4.0,-1.0,-0.39080810546875,-0.453125,0.69793701171875,0.39337158203125,-0.18505859375,-0.9931640625,0.29052734375,-1.125,3.9375,3.0625
0.85,0.0,3.0,26.0,19.0,8.0,2.0,0.0,2.0,-0.39215087890625,-0.45208740234375,0.69757080078125,0.39398193359375,-0.20849609375,-0.9599609375,0.2763671875,0.5,4.4375,-0.375
0.855,1.0,0.0,7.0,-6.0,-3.0,-5.0,-1.0,-2.0,-0.392822265625,-0.4520263671875,0.69732666015625,0.39373779296875,-0.2255859375,-0.95654296875,0.2841796875,-2.0625,1.8125,0.1875
0.86,1.0,4.0,14.0,7.0,0.0,3.0,1.0,2.0,-0.39349365234375,-0.452392578125,0.69708251953125,0.39312744140625,-0.22705078125,-0.97900390625,0.25634765625,-3.0,0.0,1.1875
0.865,-1.0,-2.0,-3.0,-6.0,1.0,-1.0,-1.0,0.0,-0.393798828125,-0.4522705078125,0.69732666015625,0.39251708984375,-0.2197265625,-1.02392578125,0.259765625,2.3125,-1.5625,3.5
0.87,-1.0,3.0,-3.0,-3.0,-4.0,-3.0,-1.0,-1.0,-0.3935546875,-0.45098876953125,0.6983642578125,0.39239501953125,-0.2216796875,-1.02587890625,0.27880859375,9.875,-1.25,4.4375
0.875,1.0,4.0,13.0,1.0,2.0,0.0,0.0,1.0,-0.392333984375,-0.44879150390625,0.70001220703125,0.39324951171875,-0.19775390625,-0.97802734375,0.28466796875,18.875,-1.875,2.625
0.88,-2.0,9.0,31.0,-1.0,-2.0,0.0,-2.0,-1.0,-0.39093017578125,-0.4462890625,0.70196533203125,0.39398193359375,-0.20849609375,-0.9423828125,0.28857421875,20.5,-2.5625,2.6875
0.885,-2.0,3.0,-1.0,-4.0,-1.0,-2.0,-1.0,-1.0,-0.3900146484375,-0.44488525390625,0.70330810546875,0.3941650390625,-0.20361328125,-0.95166015625,0.2939453125,12.375,-3.25,3.125
0.89,-5.0,-9.0,-29.0,8.0,-8.0,-4.0,-5.0,-5.0,-0.38916015625,-0.44403076171875,0.70428466796875,0.39410400390625,-0.19189453125,-0.94287109375,0.2802734375,9.3125,-4.1875,2.6875
0.895,1.0,4.0,15.0,-2.0,4.0,-1.0,0.0,1.0,-0.38873291015625,-0.4427490234375,0.7054443359375,0.3939208984375,-0.20947265625,-0.92822265625,0.3017578125,8.875,-2.375,4.375
0.9,3.0,0.0,3.0,-8.0,0.0,-1.0,0.0,-2.0,-0.3885498046875,-0.4420166015625,0.70635986328125,0.39337158203125,-0.20263671875,-0.9404296875,0.318359375,3.875,-2.25,5.5
0.905,7.0,14.0,59.0,52.0,5.0,0.0,-1.0,2.0,-0.388916015625,-0.44287109375,0.7060546875,0.39251708984375,-0.20849609375,-0.984375,0.294921875,-5.0,-2.125,2.125
0.91,-2.0,-9.0,-31.0,-7.0,-1.0,-1.0,-1.0,0.0,-0.38751220703125,-0.44073486328125,0.70721435546875,0.39422607421875,-0.19921875,-0.9326171875,0.3408203125,9.1875,0.875,-2.1875
0.915,-2.0,-12.0,-22.0,-1.0,-3.0,-1.0,1.0,-2.0
0.92,1.0,-3.0,33.0,43.0,6.0,1.0,-1.0,0.0,-0.38690185546875,-0.4404296875,0.707275390625,0.39508056640625,-0.1962890625,-0.94970703125,0.33544921875,3.6875,0.75,-3.625
0.925,3.0,-8.0,-30.0,-4.0,2.0,1.0,2.0,5.0,-0.38555908203125,-0.43975830078125,0.70721435546875,0.397216796875,-0.17333984375,-0.9375,0.34228515625,7.375,1.6875,-3.0
0.93,-1.0,18.0,46.0,4.0,1.0,-2.0,-1.0,-3.0
0.935,-3.0,-3.0,11.0,-6.0,0.0,-2.0,-4.0,-4.0,-0.38543701171875,-0.43951416015625,0.7069091796875,0.39813232421875,-0.1669921875,-0.91357421875,0.33984375,0.375,4.3125,-2.8125
0.94,5.0,10.0,31.0,15.0,5.0,3.0,2.0,3.0,-0.38568115234375,-0.43951416015625,0.7064208984375,0.3988037109375,-0.18408203125,-0.92236328125,0.33203125,-1.5625,3.75,-2.5625
0.945,1.0,-12.0,13.0,2.0,3.0,2.0,2.0,0.0,-0.38580322265625,-0.44024658203125,0.7056884765625,0.399169921875,-0.1904296875,-0.93359375,0.3173828125,-4.1875,1.6875,-4.4375
0.95,-13.0,-18.0,-63.0,12.0,-7.0,-10.0,-9.0,-8.0,-0.3858642578125,-0.44036865234375,0.705078125,0.4000244140625,-0.1787109375,-0.94921875,0.31982421875,-0.25,3.875,-3.6875
0.955,0.0,-13.0,-9.0,-6.0,5.0,0.0,0.0,0.0,-0.385498046875,-0.4400634765625,0.70477294921875,0.4012451171875,-0.1708984375,-0.96826171875,0.33935546875,3.0625,3.875,-4.1875
0.96,-2.0,8.0,4.0,20.0,-1.0,-2.0,-4.0,-5.0,-0.38592529296875,-0.4388427734375,0.70379638671875,0.40386962890625,-0.2109375,-0.91552734375,0.310546875,4.6875,6.5,-4.375
0.965,-4.0,-13.0,-37.0,-58.0,-12.0,-5.0,-2.0,-4.0,-0.38531494140625,-0.43780517578125,0.7039794921875,0.4052734375,-0.2060546875,-0.91357421875,0.3408203125,7.5,2.9375,-6.0625
0.97,0.0,28.0,-26.0,-92.0,-24.0,-3.0,1.0,0.0,-0.385009765625,-0.43878173828125,0.701904296875,0.408203125,-0.17138671875,-0.947265625,0.32666015625,-3.375,5.4375,-9.9375
0.975,8.0,18.0,72.0,23.0,-7.0,-1.0,2.0,5.0
0.98,5.0,24.0,-4.0,-52.0,-14.0,-4.0,-1.0,2.0,-0.38507080078125,-0.43896484375,0.700927734375,0.40948486328125,-0.18798828125,-0.9482421875,0.34326171875,-1.9375,5.3125,-8.0
0.985,2.0,18.0,14.0,83.0,-7.0,-6.0,0.0,0.0,-0.3848876953125,-0.4400634765625,0.6995849609375,0.41082763671875,-0.21728515625,-0.93798828125,0.328125,-2.5625,-1.0625,-9.5625
0.99,6.0,32.0,75.0,117.0,4.0,2.0,7.0,7.0,-0.38336181640625,-0.44140625,0.6988525390625,0.41204833984375,-0.24462890625,-0.92578125,0.3271484375,-1.75,-6.125,-18.0
0.995,-16.0,-15.0,68.0,-55.0,-34.0,-16.0,-8.0,-11.0,-0.3812255859375,-0.44415283203125,0.69696044921875,0.414306640625,-0.236328125,-0.97412109375,0.3271484375,-5.9375,-6.5,-29.375
1.0,2.0,6.0,32.0,-15.0,9.0,7.0,4.0,3.0,-0.37860107421875,-0.45062255859375,0.69134521484375,0.4190673828125,-0.01513671875,-0.9169921875,0.29248046875,-18.5625,6.3125,-15.5625
1.005,12.0,11.0,22.0,-51.0,-1.0,8.0,6.0,7.0,-0.38665771484375,-0.45648193359375,0.68359375,0.41815185546875,-0.1748046875,-1.0009765625,0.31298828125,-32.6875,18.4375,1.625
1.01,-14.0,-38.0,-101.0,-75.0,-4.0,-8.0,-6.0,-8.0,-0.39056396484375,-0.45855712890625,0.6800537109375,0.41796875,-0.17724609375,-1.0078125,0.30419921875,-28.3125,17.5,-3.5
1.015,-10.0,-49.0,-97.0,-13.0,15.0,3.0,-2.0,-4.0,-0.3973388671875,-0.46124267578125,0.6739501953125,0.41845703125,-0.1435546875,-0.99951171875,0.2890625,-20.3125,17.875,1.5
1.02,15.0,23.0,-7.0,51.0,37.0,12.0,10.0,9.0
1.025,0.0,-2.0,-46.0,-40.0,2.0,1.0,3.0,1.0,-0.4007568359375,-0.462646484375,0.6712646484375,0.4180908203125,-0.15771484375,-0.9619140625,0.27685546875,-23.4375,15.25,0.6875
1.03,0.0,20.0,54.0,49.0,10.0,5.0,0.0,-5.0,-0.40570068359375,-0.46722412109375,0.664306640625,0.4193115234375,-0.13134765625,-0.99169921875,0.24560546875,-16.125,13.625,-9.375
1.035,-5.0,-8.0,4.0,-15.0,-32.0,-8.0,-7.0,-5.0
1.04,-12.0,1.0,44.0,-40.0,-14.0,-4.0,-7.0,-10.0,-0.40704345703125,-0.468994140625,0.66156005859375,0.4202880859375,-0.11181640625,-0.96826171875,0.24853515625,-16.4375,10.9375,-8.8125
1.045,11.0,-15.0,-32.0,10.0,14.0,9.0,8.0,8.0,-0.4080810546875,-0.470458984375,0.65936279296875,0.421142578125,-0.107421875,-1.0009765625,0.2294921875,-12.0625,8.125,-6.375
1.05,-2.0,-13.0,50.0,-19.0,-35.0,-14.0,-6.0,-5.0,-0.408203125,-0.47021484375,0.65863037109375,0.42242431640625,-0.115234375,-0.9736328125,0.21044921875,3.1875,6.5625,-3.9375
1.055,2.0,-11.0,-64.0,-37.0,-1.0,2.0,-2.0,-3.0
1.06,-18.0,-21.0,53.0,-53.0,8.0,-2.0,-12.0,-13.0,-0.4083251953125,-0.47027587890625,0.65802001953125,0.4232177734375,-0.14306640625,-0.9736328125,0.19189453125,1.9375,3.4375,-4.5
1.065,-7.0,-27.0,3.0,22.0,-2.0,-5.0,-2.0,-2.0,-0.4085693359375,-0.47039794921875,0.6575927734375,0.423583984375,-0.15087890625,-0.955078125,0.205078125,-0.5,2.125,-3.0625
1.07,11.0,-2.0,25.0,7.0,15.0,6.0,5.0,6.0,-0.40911865234375,-0.47125244140625,0.6566162109375,0.42352294921875,-0.1474609375,-0.96044921875,0.19775390625,-5.6875,1.8125,-3.375
1.075,5.0,-18.0,-1.0,9.0,-6.0,3.0,4.0,0.0,-0.409912109375,-0.47198486328125,0.65594482421875,0.42303466796875,-0.1337890625,-0.96875,0.20166015625,-6.5,1.4375,0.875
1.08,9.0,29.0,6.0,-71.0,-1.0,3.0,3.0,4.0,-0.41131591796875,-0.47198486328125,0.655517578125,0.4222412109375,-0.1796875,-0.94775390625,0.216796875,-6.875,3.5625,3.0
1.085,3.0,-14.0,-1.0,75.0,20.0,0.0,4.0,6.0,-0.41204833984375,-0.47247314453125,0.65478515625,0.4222412109375,-0.20947265625,-0.96728515625,0.22705078125,-6.75,2.375,-5.5
1.09,6.0,42.0,76.0,77.0,9.0,7.0,2.0,2.0,-0.41180419921875,-0.47332763671875,0.65380859375,0.4229736328125,-0.12939453125,-1.00732421875,0.22314453125,-3.4375,1.375,-7.125
1.095,8.0,32.0,3.0,-55.0,-18.0,-1.0,3.0,5.0,-0.4136962890625,-0.47381591796875,0.6531982421875,0.4215087890625,-0.16845703125,-0.96728515625,0.20068359375,-9.8125,0.4375,3.3125
1.1,-8.0,-50.0,-77.0,-25.0,-2.0,-5.0,-4.0,-1.0
1.105,6.0,27.0,35.0,-35.0,-10.0,1.0,1.0,1.0,-0.4140625,-0.47509765625,0.65203857421875,0.42156982421875,-0.17529296875,-0.9970703125,0.20068359375,-7.8125,0.6875,-7.125
1.11,-3.0,15.0,21.0,90.0,37.0,11.0,-1.0,-4.0,-0.41253662109375,-0.47589111328125,0.65118408203125,0.4234619140625,-0.11865234375,-1.01806640625,0.20703125,3.375,-0.1875,-13.5625
1.115,-14.0,-40.0,-74.0,-107.0,-51.0,-24.0,-8.0,-8.0,-0.41168212890625,-0.47662353515625,0.6507568359375,0.424072265625,-0.07568359375,-0.99658203125,0.2099609375,-0.3125,-1.625,-3.5
1.12,0.0,10.0,37.0,30.0,10.0,1.0,0.0,0.0,-0.41156005859375,-0.47735595703125,0.65087890625,0.42315673828125,-0.12255859375,-0.9931640625,0.197265625,-3.1875,-4.875,2.4375
1.125,2.0,21.0,82.0,24.0,1.0,2.0,0.0,6.0,-0.40765380859375,-0.47760009765625,0.6524658203125,0.4241943359375,-0.11376953125,-1.07275390625,0.22998046875,14.4375,-7.9375,-8.1875
1.13,4.0,29.0,4.0,12.0,0.0,-2.0,-3.0,-1.0
1.135,4.0,-5.0,-21.0,12.0,7.0,4.0,-1.0,-4.0,-0.40509033203125,-0.4765625,0.6539306640625,0.42559814453125,-0.0751953125,-1.046875,0.24609375,16.4375,-5.6875,-2.125
1.14,-10.0,6.0,49.0,-34.0,-25.0,-14.0,-6.0,-10.0,-0.40374755859375,-0.47418212890625,0.6563720703125,0.42578125,-0.1337890625,-0.96923828125,0.26025390625,16.9375,-4.3125,6.5
1.145,6.0,3.0,7.0,-8.0,-6.0,-11.0,-6.0,2.0,-0.40228271484375,-0.47210693359375,0.65911865234375,0.42523193359375,-0.14404296875,-0.98828125,0.27197265625,15.0,-7.9375,8.75
1.15,-21.0,-10.0,-9.0,47.0,8.0,-8.0,-7.0,-14.0,-0.39691162109375,-0.46728515625,0.66552734375,0.4256591796875,-0.10986328125,-0.9794921875,0.28271484375,29.0,-6.8125,6.5625
1.155,13.0,9.0,-12.0,24.0,5.0,-1.0,-2.0,5.0,-0.396728515625,-0.4659423828125,0.6669921875,0.4249267578125,-0.06298828125,-0.9970703125,0.294921875,5.4375,-1.0625,14.25
1.16,8.0,8.0,-15.0,-5.0,-6.0,3.0,6.0,9.0,-0.39813232421875,-0.46282958984375,0.6710205078125,0.42071533203125,-0.23583984375,-0.99365234375,0.25,1.0,-5.3125,13.1875
1.165,10.0,-9.0,-9.0,-16.0,-1.0,5.0,1.0,-3.0
1.17,5.0,8.0,20.0,18.0,1.0,-4.0,-4.0,3.0,-0.39727783203125,-0.45953369140625,0.6739501953125,0.42041015625,-0.15966796875,-1.00732421875,0.28955078125,21.125,-2.9375,13.375
1.175,36.0,-12.0,-28.0,2.0,-4.0,6.0,14.0,8.0,-0.3974609375,-0.45611572265625,0.67584228515625,0.4208984375,-0.08642578125,-0.99072265625,0.3046875,17.1875,7.8125,15.8125
1.18,-7.0,5.0,30.0,-2.0,0.0,2.0,7.0,-16.0,-0.4012451171875,-0.45513916015625,0.67523193359375,0.41943359375,-0.1513671875,-0.912109375,0.28466796875,-12.5625,14.75,16.4375
1.185,3.0,-14.0,-31.0,1.0,1.0,-7.0,-9.0,-4.0,-0.40765380859375,-0.4576416015625,0.67376708984375,0.41290283203125,-0.248046875,-1.00244140625,0.22705078125,-14.1875,0.5625,12.0625
1.19,-8.0,5.0,2.0,-10.0,-1.0,1.0,-3.0,9.0,-0.40899658203125,-0.45733642578125,0.673583984375,0.41204833984375,-0.166015625,-1.01806640625,0.24755859375,-3.25,4.125,8.25
1.195,-49.0,8.0,55.0,25.0,5.0,-3.0,-11.0,-27.0,-0.40972900390625,-0.45623779296875,0.6729736328125,0.41363525390625,-0.15185546875,-1.005859375,0.28515625,3.0,11.875,-0.9375
1.2,11.0,1.0,-5.0,-11.0,-3.0,2.0,7.0,0.0,-0.41259765625,-0.4547119140625,0.67230224609375,0.4134521484375,-0.2041015625,-0.94580078125,0.2373046875,-3.0,15.25,8.375
1.205,11.0,10.0,-1.0,-4.0,-3.0,-3.0,-3.0,-1.0,-0.4173583984375,-0.45654296875,0.6705322265625,0.40960693359375,-0.20458984375,-0.97412109375,0.20166015625,-7.375,4.125,9.25
1.21,-10.0,-6.0,-7.0,1.0,0.0,-1.0,-2.0,-7.0,-0.41876220703125,-0.45599365234375,0.670654296875,0.4085693359375,-0.21337890625,-0.98291015625,0.22216796875,-2.1875,2.9375,8.125
1.215,0.0,-7.0,2.0,6.0,2.0,0.0,-1.0,-3.0,-0.42120361328125,-0.45806884765625,0.66778564453125,0.408447265625,-0.205078125,-0.9853515625,0.1962890625,-12.5,4.75,-5.0625
1.22,0.0,6.0,10.0,17.0,0.0,-2.0,0.0,1.0
1.225,21.0,1.0,-3.0,-3.0,0.0,0.0,-1.0,-1.0,-0.421630859375,-0.4593505859375,0.6673583984375,0.4072265625,-0.18896484375,-0.97705078125,0.154296875,-5.0,-4.25,1.8125
1.23,18.0,18.0,31.0,-3.0,1.0,2.0,5.0,13.0,-0.4180908203125,-0.459228515625,0.67041015625,0.406005859375,-0.1416015625,-0.98046875,0.2041015625,12.125,-12.3125,2.5
1.235,-15.0,13.0,-4.0,15.0,-1.0,-1.0,-1.0,1.0,-0.41656494140625,-0.458740234375,0.67138671875,0.40655517578125,-0.15625,-0.923828125,0.212890625,10.0,-5.6875,-1.125
1.24,3.0,-13.0,7.0,-14.0,-4.0,-4.0,1.0,4.0
1.245,-1.0,2.0,3.0,31.0,11.0,-1.0,0.0,-2.0,-0.41534423828125,-0.45855712890625,0.67236328125,0.4063720703125,-0.1826171875,-0.9345703125,0.22119140625,6.125,-7.25,-0.125
1.25,-12.0,-1.0,-23.0,-13.0,-7.0,-3.0,-3.0,-7.0,-0.41436767578125,-0.45855712890625,0.67364501953125,0.4052734375,-0.19482421875,-0.94677734375,0.2314453125,3.3125,-9.6875,4.125
1.255,12.0,6.0,34.0,7.0,3.0,2.0,4.0,12.0,-0.41253662109375,-0.4593505859375,0.675048828125,0.4039306640625,-0.18701171875,-0.98583984375,0.22314453125,3.0625,-16.0625,1.875
1.26,7.0,6.0,8.0,16.0,2.0,1.0,2.0,-1.0,-0.4100341796875,-0.459716796875,0.67645263671875,0.40374755859375,-0.140625,-0.9873046875,0.24267578125,7.9375,-13.8125,-0.125
1.265,-3.0,-3.0,13.0,4.0,-2.0,0.0,-2.0,-2.0,-0.407470703125,-0.45880126953125,0.67822265625,0.404296875,-0.1611328125,-0.986328125,0.2744140625,14.25,-9.5625,-0.6875
1.27,-9.0,0.0,-14.0,-11.0,-9.0,-1.0,-4.0,-7.0,-0.40545654296875,-0.4581298828125,0.67962646484375,0.40472412109375,-0.19091796875,-0.9482421875,0.26171875,11.25,-8.625,-2.875
1.275,-5.0,2.0,30.0,4.0,-2.0,-2.0,-1.0,4.0,-0.40203857421875,-0.4583740234375,0.681884765625,0.40411376953125,-0.1875,-0.95947265625,0.28564453125,1.875,-10.1875,-1.4375
1.28,0.0,1.0,-9.0,-13.0,2.0,3.0,-1.0,3.0,-0.400634765625,-0.45892333984375,0.6824951171875,0.40380859375,-0.18212890625,-0.9736328125,0.287109375,0.1875,-8.625,-2.4375
1.285,-2.0,-10.0,-5.0,-11.0,-6.0,-2.0,-4.0,-2.0,-0.398681640625,-0.46038818359375,0.68292236328125,0.4034423828125,-0.173828125,-0.95947265625,0.28125,-2.4375,-5.25,-2.0
1.29,4.0,0.0,5.0,-5.0,2.0,-3.0,-2.0,-4.0
1.295,-8.0,-8.0,-9.0,-5.0,-1.0,-1.0,0.0,2.0,-0.39801025390625,-0.46075439453125,0.683349609375,0.40283203125,-0.19970703125,-0.97900390625,0.27294921875,-0.5625,-6.4375,-0.8125
1.3,6.0,-14.0,-3.0,5.0,-1.0,1.0,0.0,-1.0,-0.3956298828125,-0.46136474609375,0.6842041015625,0.40313720703125,-0.158203125,-0.99169921875,0.27197265625,5.25,-4.5,-4.125
1.305,7.0,0.0,-9.0,2.0,-4.0,-2.0,-1.0,1.0
1.31,-51.0,-4.0,-11.0,-19.0,-2.0,1.0,-1.0,-8.0,-0.39453125,-0.4608154296875,0.68487548828125,0.40374755859375,-0.17236328125,-0.96435546875,0.27392578125,7.3125,-3.0,-2.5625
1.315,7.0,3.0,-2.0,18.0,6.0,0.0,0.0,-1.0,-0.39398193359375,-0.46099853515625,0.68505859375,0.40362548828125,-0.17578125,-0.95703125,0.27978515625,-0.25,-3.375,-1.25
1.32,1.0,-1.0,11.0,4.0,2.0,1.0,1.0,4.0,-0.39398193359375,-0.46173095703125,0.6849365234375,0.40301513671875,-0.17431640625,-0.97021484375,0.287109375,-5.8125,-2.75,-0.1875
1.325,2.0,-10.0,-15.0,-6.0,-1.0,-1.0,0.0,-2.0,-0.39361572265625,-0.46246337890625,0.684814453125,0.40264892578125,-0.17138671875,-0.99365234375,0.28271484375,-3.75,-3.75,-1.125
1.33,-3.0,9.0,28.0,2.0,0.0,-2.0,2.0,1.0,-0.3931884765625,-0.4625244140625,0.68499755859375,0.40277099609375,-0.16845703125,-1.00390625,0.30126953125,-0.125,-1.4375,-0.6875
1.335,6.0,0.0,-8.0,-4.0,-1.0,2.0,-2.0,0.0,-0.39288330078125,-0.462158203125,0.685302734375,0.4029541015625,-0.1728515625,-0.99072265625,0.2890625,2.3125,-0.625,0.0
1.34,-24.0,6.0,5.0,-25.0,-5.0,0.0,0.0,-7.0,-0.392578125,-0.4619140625,0.68572998046875,0.40283203125,-0.17431640625,-0.97509765625,0.2802734375,1.8125,-1.75,0.8125
1.345,6.0,0.0,9.0,15.0,0.0,-1.0,-1.0,7.0,-0.39263916015625,-0.46234130859375,0.6856689453125,0.4024658203125,-0.17041015625,-0.97021484375,0.2705078125,-2.8125,-1.6875,0.5
1.35,8.0,4.0,-2.0,-12.0,-3.0,-1.0,-1.0,2.0,-0.392822265625,-0.462646484375,0.685546875,0.40203857421875,-0.1728515625,-0.99560546875,0.27587890625,-3.0,-1.0,1.1875
1.355,8.0,-4.0,28.0,-1.0,-3.0,-2.0,0.0,1.0,-0.39276123046875,-0.46270751953125,0.685546875,0.40203857421875,-0.1533203125,-0.99169921875,0.28271484375,0.8125,-0.625,0.625
1.36,7.0,8.0,-8.0,11.0,-3.0,-1.0,-2.0,-2.0,-0.39288330078125,-0.46148681640625,0.68621826171875,0.4022216796875,-0.17431640625,-0.96533203125,0.2822265625,1.9375,1.125,2.4375
1.365,0.0,16.0,25.0,1.0,-3.0,-2.0,-2.0,-3.0
1.37,-26.0,-1.0,2.0,14.0,2.0,0.0,1.0,-1.0,-0.39349365234375,-0.46136474609375,0.6861572265625,0.40185546875,-0.17431640625,-0.9619140625,0.27490234375,-2.5625,1.6875,3.25
1.375,7.0,-9.0,-8.0,-18.0,9.0,5.0,0.0,0.0,-0.39398193359375,-0.46160888671875,0.68597412109375,0.4013671875,-0.16943359375,-0.9921875,0.2822265625,-1.375,0.3125,0.9375
1.38,9.0,-3.0,0.0,5.0,-4.0,-1.0,-4.0,0.0
1.385,7.0,3.0,4.0,-2.0,-2.0,3.0,-2.0,-2.0,-0.3941650390625,-0.461181640625,0.68609619140625,0.40155029296875,-0.16259765625,-0.97705078125,0.26025390625,2.75,2.25,1.6875
1.39,2.0,-2.0,-18.0,-3.0,-3.0,-4.0,-2.0,-3.0
1.395,-2.0,1.0,-13.0,7.0,-2.0,-3.0,-1.0,-2.0,-0.39422607421875,-0.460693359375,0.686279296875,0.4017333984375,-0.1767578125,-0.97802734375,0.26708984375,3.0625,1.25,0.9375
1.4,2.0,0.0,-2.0,3.0,8.0,2.0,1.0,1.0,-0.39385986328125,-0.4593505859375,0.6871337890625,0.402099609375,-0.1884765625,-0.96728515625,0.27294921875,4.6875,-0.1875,0.5
1.405,1.0,1.0,-11.0,-19.0,-3.0,-2.0,0.0,-1.0
1.41,-2.0,-8.0,-13.0,5.0,-5.0,-2.0,1.0,0.0,-0.3936767578125,-0.45916748046875,0.68731689453125,0.40228271484375,-0.1767578125,-0.98779296875,0.251953125,3.5625,-0.5625,-0.1875
1.415,3.0,4.0,8.0,-8.0,-4.0,-2.0,1.0,1.0,-0.39306640625,-0.45849609375,0.68780517578125,0.40277099609375,-0.18701171875,-1.00634765625,0.24951171875,8.9375,-1.4375,-1.25
1.42,4.0,1.0,-4.0,14.0,2.0,2.0,-2.0,-1.0,-0.391845703125,-0.45697021484375,0.6888427734375,0.40386962890625,-0.1689453125,-0.98583984375,0.24365234375,16.875,-0.9375,-1.1875
1.425,-4.0,0.0,21.0,31.0,-1.0,-2.0,-5.0,-5.0,-0.390625,-0.455322265625,0.68994140625,0.405029296875,-0.17138671875,-0.94873046875,0.2705078125,15.375,-0.625,-1.5
1.43,0.0,2.0,23.0,23.0,1.0,0.0,0.0,-1.0,-0.3897705078125,-0.45416259765625,0.69073486328125,0.40582275390625,-0.1787109375,-0.96142578125,0.29443359375,10.125,-0.25,-1.4375
1.435,-5.0,-13.0,-30.0,-5.0,-1.0,-1.0,-2.0,-1.0,-0.3892822265625,-0.45318603515625,0.691162109375,0.40667724609375,-0.1708984375,-0.95947265625,0.29638671875,7.6875,1.3125,-1.125
1.44,-3.0,-12.0,2.0,-3.0,-6.0,-4.0,-2.0,-2.0,-0.38916015625,-0.45257568359375,0.69146728515625,0.406982421875,-0.181640625,-0.95068359375,0.30615234375,2.8125,1.125,-0.5
1.445,1.0,3.0,-1.0,-40.0,-6.0,-5.0,-4.0,-2.0,-0.388916015625,-0.452392578125,0.6915283203125,0.40716552734375,-0.19140625,-0.984375,0.3037109375,1.625,-0.5,-1.625
1.45,-1.0,-5.0,-12.0,22.0,-1.0,-3.0,-2.0,-3.0,-0.388427734375,-0.45220947265625,0.6915283203125,0.40789794921875,-0.17529296875,-0.98291015625,0.3212890625,2.3125,0.6875,-3.625
1.455,-9.0,-8.0,-3.0,-20.0,-9.0,-5.0,-5.0,-5.0,-0.38824462890625,-0.45159912109375,0.69146728515625,0.4088134765625,-0.16943359375,-0.99658203125,0.3154296875,4.0625,3.3125,-2.6875
1.46,1.0,4.0,-3.0,13.0,6.0,3.0,3.0,1.0,-0.3870849609375,-0.4495849609375,0.69244384765625,0.41058349609375,-0.16259765625,-0.99267578125,0.33154296875,16.0,3.1875,-2.4375
1.465,5.0,4.0,-12.0,-29.0,-7.0,1.0,-1.0,-1.0,-0.38629150390625,-0.447021484375,0.6932373046875,0.4127197265625,-0.1533203125,-0.9453125,0.34814453125,15.5625,7.3125,-1.9375
1.47,-2.0,-5.0,10.0,-11.0,-8.0,-6.0,-5.0,-7.0,-0.38671875,-0.446044921875,0.693115234375,0.41363525390625,-0.16943359375,-0.9140625,0.3291015625,2.3125,6.75,-1.1875
1.475,-5.0,-7.0,-9.0,2.0,5.0,1.0,-1.0,0.0
1.48,6.0,1.0,0.0,1.0,10.0,4.0,3.0,2.0,-0.38983154296875,-0.44891357421875,0.68975830078125,0.4132080078125,-0.18896484375,-1.00732421875,0.248046875,-5.625,4.1875,-2.25
1.485,-5.0,1.0,-5.0,-64.0,-17.0,-6.0,-6.0,-4.0,-0.38970947265625,-0.4478759765625,0.68951416015625,0.41485595703125,-0.15283203125,-1.04345703125,0.30224609375,9.0625,7.0625,-3.125
1.49,12.0,16.0,31.0,22.0,7.0,2.0,2.0,1.0,-0.3896484375,-0.44659423828125,0.6888427734375,0.4173583984375,-0.13916015625,-1.00390625,0.30615234375,9.75,11.25,-6.375
1.495,-6.0,-44.0,-54.0,23.0,2.0,-2.0,-7.0,-6.0,-0.38909912109375,-0.444091796875,0.689208984375,0.419921875,-0.1806640625,-0.92822265625,0.306640625,17.5,9.1875,-6.4375
1.5,6.0,4.0,23.0,48.0,13.0,6.0,3.0,2.0,-0.3907470703125,-0.44140625,0.6890869140625,0.42144775390625,-0.18603515625,-0.91259765625,0.318359375,-3.3125,7.4375,0.8125
1.505,7.0,2.0,16.0,-4.0,-23.0,-7.0,1.0,4.0,-0.394775390625,-0.44281005859375,0.68548583984375,0.422119140625,-0.162109375,-1.015625,0.30322265625,-7.75,13.1875,-3.3125
1.51,-3.0,7.0,59.0,-68.0,0.0,-2.0,-1.0,-2.0
1.515,-22.0,-13.0,83.0,63.0,-26.0,-21.0,-15.0,-16.0,-0.39501953125,-0.44097900390625,0.68511962890625,0.4244384765625,-0.1416015625,-0.93505859375,0.33935546875,8.3125,13.25,-3.6875
1.52,32.0,72.0,35.0,52.0,49.0,26.0,17.0,21.0,-0.39617919921875,-0.43994140625,0.68414306640625,0.4259033203125,-0.18017578125,-0.9208984375,0.318359375,0.3125,12.8125,-4.0
1.525,23.0,36.0,-48.0,65.0,48.0,16.0,10.0,14.0,-0.398193359375,-0.44000244140625,0.68255615234375,0.42657470703125,-0.18505859375,-0.88525390625,0.330078125,-11.1875,13.25,-3.125
1.53,5.0,12.0,-31.0,-62.0,0.0,6.0,3.0,-4.0,-0.4031982421875,-0.44390869140625,0.677490234375,0.4259033203125,-0.16015625,-0.99169921875,0.271484375,-25.3125,11.125,-2.8125
1.535,-3.0,-10.0,-8.0,49.0,-25.0,-8.0,-6.0,-3.0
1.54,31.0,63.0,120.0,2.0,-14.0,1.0,11.0,13.0,-0.40576171875,-0.44525146484375,0.67449951171875,0.4267578125,-0.1318359375,-0.9794921875,0.28515625,-17.25,16.4375,-4.375
1.545,-10.0,-76.0,-62.0,32.0,39.0,6.0,-3.0,-4.0,-0.4080810546875,-0.44573974609375,0.67181396484375,0.4283447265625,-0.13134765625,-0.9462890625,0.275390625,-11.0625,18.75,-5.5
1.55,15.0,38.0,-22.0,-82.0,0.0,8.0,10.0,14.0,-0.411865234375,-0.44775390625,0.6683349609375,0.427978515625,-0.17236328125,-0.9013671875,0.23974609375,-26.5,16.75,-3.3125
1.555,-43.0,-52.0,-81.0,-30.0,-53.0,-33.0,-25.0,-26.0,-0.418701171875,-0.45343017578125,0.66094970703125,0.42694091796875,-0.14453125,-0.9931640625,0.2373046875,-23.0625,12.8125,-5.125
1.56,1.0,-6.0,54.0,88.0,23.0,10.0,1.0,-3.0,-0.42047119140625,-0.45465087890625,0.658447265625,0.42767333984375,-0.1484375,-0.9658203125,0.232421875,-13.625,11.8125,-6.125
1.565,-8.0,-17.0,12.0,-52.0,-29.0,-11.0,-7.0,-6.0
1.57,0.0,20.0,45.0,-95.0,9.0,2.0,-1.0,0.0,-0.42218017578125,-0.455810546875,0.65655517578125,0.427734375,-0.1533203125,-0.9306640625,0.23681640625,-14.375,8.75,-2.6875
1.575,3.0,14.0,69.0,-74.0,-15.0,-1.0,-1.0,1.0,-0.424072265625,-0.4573974609375,0.65460205078125,0.4271240234375,-0.1494140625,-0.97607421875,0.259765625,-19.625,6.875,-0.5
1.58,-10.0,-19.0,77.0,-13.0,-40.0,-14.0,-7.0,-6.0,-0.42535400390625,-0.458984375,0.65350341796875,0.42584228515625,-0.18896484375,-0.998046875,0.234375,-15.6875,0.25,0.5
1.585,6.0,-41.0,-58.0,24.0,0.0,4.0,8.0,11.0,-0.4261474609375,-0.45989990234375,0.65301513671875,0.4246826171875,-0.16064453125,-0.9873046875,0.20458984375,-8.5625,-1.3125,3.6875
1.59,6.0,0.0,-5.0,62.0,17.0,12.0,9.0,8.0,-0.4266357421875,-0.46044921875,0.6527099609375,0.42413330078125,-0.14111328125,-0.97705078125,0.212890625,-5.3125,0.25,3.125
1.595,18.0,66.0,65.0,21.0,9.0,6.0,0.0,0.0,-0.42669677734375,-0.4610595703125,0.6522216796875,0.4241943359375,-0.17529296875,-0.99072265625,0.2177734375,-3.75,-0.0625,-3.0625
1.6,-9.0,3.0,127.0,-35.0,-26.0,-15.0,-9.0,-11.0,-0.426513671875,-0.4615478515625,0.6519775390625,0.42425537109375,-0.1328125,-0.95654296875,0.19921875,-1.25,-0.75,-0.5625
1.605,1.0,30.0,20.0,48.0,11.0,7.0,2.0,1.0,-0.4278564453125,-0.46258544921875,0.6514892578125,0.4224853515625,-0.177734375,-0.9873046875,0.22216796875,-8.125,-0.5,2.25
1.61,-2.0,-12.0,-78.0,-24.0,12.0,10.0,4.0,0.0,-0.4276123046875,-0.4625244140625,0.65130615234375,0.423095703125,-0.1943359375,-1.0166015625,0.23828125,0.125,1.125,-4.5625
1.615,-9.0,-22.0,20.0,-80.0,-35.0,-16.0,-9.0,-13.0,-0.42669677734375,-0.4620361328125,0.65179443359375,0.423828125,-0.19287109375,-0.99169921875,0.21435546875,7.25,-1.9375,-4.3125
1.62,3.0,-16.0,26.0,-81.0,-50.0,-14.0,-3.0,6.0,-0.42657470703125,-0.46209716796875,0.65191650390625,0.42364501953125,-0.142578125,-0.9306640625,0.2109375,-0.75,-0.9375,1.5
1.625,3.0,7.0,31.0,24.0,16.0,8.0,4.0,6.0,-0.4281005859375,-0.4639892578125,0.650146484375,0.4227294921875,-0.18994140625,-1.0205078125,0.2314453125,-8.1875,1.125,-2.125
1.63,12.0,58.0,21.0,5.0,-9.0,-3.0,-2.0,11.0,-0.42779541015625,-0.4642333984375,0.6497802734375,0.42333984375,-0.177734375,-1.00048828125,0.2109375,0.375,0.8125,-5.3125
1.635,-6.0,-17.0,-39.0,-60.0,-18.0,-4.0,-3.0,-11.0,-0.4276123046875,-0.46466064453125,0.64910888671875,0.42413330078125,-0.12255859375,-1.00830078125,0.20849609375,-1.0625,2.625,-3.125
1.64,-13.0,-59.0,-94.0,-62.0,-20.0,-13.0,-9.0,-10.0,-0.4278564453125,-0.46417236328125,0.649169921875,0.42437744140625,-0.1923828125,-0.9931640625,0.2216796875,-0.75,-0.875,-0.75
1.645,3.0,-14.0,-47.0,21.0,18.0,3.0,2.0,1.0,-0.4278564453125,-0.4649658203125,0.64862060546875,0.42431640625,-0.1591796875,-1.029296875,0.2001953125,-3.5,-0.4375,-2.1875
1.65,0.0,11.0,46.0,29.0,-2.0,-5.0,-3.0,-2.0,-0.42791748046875,-0.46417236328125,0.64892578125,0.42462158203125,-0.1630859375,-0.9814453125,0.21484375,3.0625,0.75,2.3125
1.655,0.0,20.0,1.0,-19.0,-5.0,-8.0,-5.0,-1.0,-0.42840576171875,-0.46478271484375,0.64874267578125,0.423828125,-0.17919921875,-1.0244140625,0.21826171875,-6.25,-1.125,1.875
1.66,-8.0,-8.0,13.0,3.0,-6.0,-6.0,-4.0,-9.0,-0.42840576171875,-0.46453857421875,0.64892578125,0.4237060546875,-0.189453125,-1.02490234375,0.20654296875,1.5625,-0.75,0.3125
1.665,-30.0,-30.0,-42.0,-67.0,-22.0,-12.0,-10.0,-16.0,-0.42694091796875,-0.46307373046875,0.65008544921875,0.425048828125,-0.13671875,-0.9921875,0.22998046875,14.1875,-0.625,-0.75
1.67,-16.0,-1.0,-57.0,-14.0,-1.0,-3.0,-4.0,-18.0,-0.4254150390625,-0.46197509765625,0.65142822265625,0.4256591796875,-0.146484375,-0.951171875,0.208984375,12.625,-4.3125,0.4375
1.675,-3.0,-1.0,17.0,-21.0,-3.0,-3.0,-2.0,3.0,-0.424560546875,-0.462646484375,0.6519775390625,0.42498779296875,-0.1318359375,-1.0361328125,0.20556640625,-0.875,-2.25,1.875
1.68,-13.0,-14.0,22.0,16.0,3.0,0.0,2.0,-4.0,-0.4237060546875,-0.46148681640625,0.6529541015625,0.42559814453125,-0.130859375,-1.03125,0.23291015625,10.25,-0.6875,3.375
1.685,10.0,-7.0,-18.0,18.0,8.0,4.0,-2.0,-6.0,-0.42138671875,-0.4580078125,0.6563720703125,0.42645263671875,-0.18310546875,-0.91943359375,0.24462890625,13.125,-4.1875,2.125
1.69,2.0,-8.0,3.0,70.0,7.0,7.0,4.0,0.0
1.695,9.0,13.0,10.0,9.0,3.0,-3.0,5.0,24.0,-0.41986083984375,-0.4566650390625,0.6580810546875,0.4266357421875,-0.13525390625,-0.9150390625,0.25341796875,11.375,-5.4375,4.0
1.7,-1.0,-5.0,-11.0,0.0,-2.0,-1.0,-5.0,-11.0,-0.4188232421875,-0.456298828125,0.65924072265625,0.42626953125,-0.13232421875,-0.94189453125,0.2548828125,4.1875,-6.0,4.3125
1.705,19.0,3.0,1.0,-8.0,-2.0,-3.0,3.0,16.0,-0.419189453125,-0.457763671875,0.658935546875,0.4249267578125,-0.16650390625,-1.05712890625,0.2666015625,-11.3125,-4.5625,2.6875
1.71,7.0,6.0,-4.0,-39.0,-4.0,-1.0,-3.0,-1.0,-0.4193115234375,-0.458251953125,0.6591796875,0.42388916015625,-0.2001953125,-1.04150390625,0.21533203125,-1.9375,-4.75,2.125
1.715,-6.0,-16.0,-9.0,5.0,-2.0,-2.0,5.0,7.0,-0.41583251953125,-0.45709228515625,0.66253662109375,0.42327880859375,-0.15283203125,-1.021484375,0.20849609375,15.0,-11.9375,-0.5625
1.72,13.0,5.0,-9.0,-5.0,-3.0,5.0,9.0,17.0,-0.41278076171875,-0.4542236328125,0.66546630859375,0.42474365234375,-0.13623046875,-0.93603515625,0.2490234375,29.0625,-7.375,1.75
1.725,-9.0,-3.0,-9.0,-38.0,-4.0,-3.0,-5.0,-6.0,-0.4105224609375,-0.45062255859375,0.6685791015625,0.42596435546875,-0.13037109375,-0.92138671875,0.32275390625,25.375,-2.8125,7.8125
1.73,5.0,-5.0,3.0,2.0,3.0,1.0,-3.0,0.0,-0.414794921875,-0.45416259765625,0.66729736328125,0.41998291015625,-0.26953125,-0.9521484375,0.22607421875,-27.375,-9.3125,1.625
1.735,-31.0,14.0,18.0,5.0,-1.0,-2.0,-4.0,-9.0
1.74,-5.0,-7.0,7.0,-2.0,-1.0,0.0,0.0,5.0,-0.41448974609375,-0.4560546875,0.66754150390625,0.41778564453125,-0.22021484375,-1.01220703125,0.20849609375,-8.0625,-13.5625,1.0
1.745,9.0,0.0,17.0,3.0,-1.0,-3.0,-1.0,-2.0,-0.412841796875,-0.45574951171875,0.66900634765625,0.41748046875,-0.1376953125,-1.0263671875,0.23388671875,10.25,-9.25,4.3125
1.75,0.0,12.0,-8.0,-4.0,-3.0,-2.0,-3.0,1.0,-0.41143798828125,-0.45367431640625,0.67059326171875,0.41864013671875,-0.13818359375,-0.98486328125,0.287109375,15.875,-0.25,3.25
1.755,-12.0,-7.0,-8.0,-8.0,-6.0,-2.0,2.0,1.0,-0.41143798828125,-0.45208740234375,0.67144775390625,0.41888427734375,-0.20361328125,-0.9619140625,0.27294921875,7.625,2.1875,2.875
1.76,4.0,-2.0,-7.0,-9.0,-3.0,-2.0,0.0,1.0,-0.41162109375,-0.452392578125,0.67169189453125,0.41796875,-0.220703125,-0.95703125,0.2333984375,-2.0,-4.0625,1.0
1.765,3.0,2.0,-2.0,-1.0,2.0,-1.0,1.0,-2.0,-0.40972900390625,-0.4522705078125,0.67327880859375,0.41741943359375,-0.1748046875,-0.9765625,0.2265625,10.1875,-12.5,1.5
1.77,-6.0,-1.0,3.0,0.0,2.0,2.0,-1.0,-3.0,-0.40655517578125,-0.45098876953125,0.67578125,0.4178466796875,-0.14208984375,-1.0009765625,0.244140625,22.1875,-13.8125,1.75
1.775,11.0,-5.0,-4.0,-5.0,-2.0,-2.0,1.0,6.0,-0.40313720703125,-0.44952392578125,0.67791748046875,0.41925048828125,-0.1171875,-0.97607421875,0.26953125,23.3125,-10.125,-2.0
1.78,5.0,-1.0,-11.0,2.0,0.0,-3.0,0.0,1.0,-0.4005126953125,-0.4482421875,0.679443359375,0.42071533203125,-0.13134765625,-0.93701171875,0.2724609375,18.625,-6.0,-3.5
1.785,-8.0,-2.0,8.0,-1.0,-4.0,-3.0,-4.0,-6.0,-0.39898681640625,-0.44677734375,0.68212890625,0.41943359375,-0.169921875,-0.9150390625,0.27783203125,-0.0625,-7.5,6.3125
1.79,1.0,-2.0,-10.0,-2.0,-2.0,0.0,0.0,-1.0,-0.39898681640625,-0.4481201171875,0.6820068359375,0.4180908203125,-0.17431640625,-0.94873046875,0.26904296875,-7.75,-6.5,1.8125
1.795,7.0,0.0,-11.0,4.0,1.0,1.0,-1.0,-1.0,-0.39874267578125,-0.44970703125,0.681396484375,0.417724609375,-0.154296875,-0.99072265625,0.275390625,-7.1875,-4.1875,-3.0625
1.8,0.0,0.0,11.0,26.0,6.0,0.0,-1.0,-1.0,-0.397705078125,-0.45074462890625,0.68115234375,0.41790771484375,-0.16162109375,-0.978515625,0.29052734375,-2.3125,-5.4375,-5.625
1.805,-3.0,0.0,-9.0,-40.0,-9.0,-4.0,-2.0,-3.0,-0.39630126953125,-0.4512939453125,0.68145751953125,0.418212890625,-0.16455078125,-0.93798828125,0.26953125,3.3125,-6.9375,-5.625
1.81,3.0,3.0,0.0,2.0,0.0,1.0,-1.0,1.0,-0.3951416015625,-0.45245361328125,0.68170166015625,0.417724609375,-0.1689453125,-0.96435546875,0.263671875,-1.0625,-9.25,-3.5
1.815,3.0,0.0,3.0,7.0,4.0,2.0,0.0,-3.0,-0.39385986328125,-0.45330810546875,0.68212890625,0.417236328125,-0.15576171875,-0.99951171875,0.26806640625,1.5625,-9.4375,-1.75
1.82,-21.0,0.0,9.0,7.0,-4.0,-5.0,-1.0,-5.0,-0.39166259765625,-0.4530029296875,0.68341064453125,0.41748046875,-0.177734375,-1.009765625,0.27880859375,11.8125,-10.5,-3.375
1.825,5.0,6.0,3.0,6.0,-1.0,-1.0,-2.0,0.0,-0.388916015625,-0.4521484375,0.68536376953125,0.41778564453125,-0.1650390625,-0.91015625,0.32275390625,-0.375,-4.5,-1.25
1.83,0.0,-2.0,8.0,1.0,4.0,0.0,-1.0,-2.0
1.835,-1.0,-2.0,-6.0,-13.0,-4.0,-1.0,-3.0,0.0,-0.3892822265625,-0.45318603515625,0.68511962890625,0.41668701171875,-0.19482421875,-0.94873046875,0.3173828125,-10.1875,-3.8125,-0.25
1.84,5.0,4.0,40.0,6.0,-2.0,-4.0,-3.0,2.0,-0.38934326171875,-0.45489501953125,0.68475341796875,0.4154052734375,-0.17919921875,-0.99658203125,0.29833984375,-10.875,-6.6875,-0.375
1.845,1.0,-2.0,0.0,-7.0,-2.0,-1.0,-1.0,-1.0,-0.3887939453125,-0.456298828125,0.68450927734375,0.414794921875,-0.1552734375,-1.04345703125,0.306640625,-6.125,-6.25,-2.125
1.85,-2.0,-1.0,1.0,-3.0,-2.0,1.0,0.0,-1.0,-0.38787841796875,-0.4564208984375,0.6846923828125,0.41522216796875,-0.15234375,-1.0224609375,0.31640625,2.375,-3.0,-2.9375
1.855,-1.0,-1.0,-17.0,-9.0,-2.0,-3.0,-1.0,0.0,-0.38641357421875,-0.45556640625,0.68572998046875,0.41583251953125,-0.16455078125,-0.98828125,0.31005859375,10.125,-4.25,-2.625
1.86,1.0,7.0,5.0,-7.0,-2.0,1.0,1.0,0.0,-0.384765625,-0.45513916015625,0.68682861328125,0.416015625,-0.14306640625,-0.96337890625,0.3115234375,-1.0625,-3.6875,-0.5625
1.865,-3.0,3.0,-2.0,-6.0,-4.0,-2.0,-1.0,-3.0,-0.384521484375,-0.45562744140625,0.686767578125,0.415771484375,-0.14013671875,-0.97412109375,0.306640625,-2.5,-2.5625,-0.125
1.87,7.0,3.0,5.0,-8.0,-5.0,-4.0,0.0,0.0,-0.38446044921875,-0.45599365234375,0.686767578125,0.41546630859375,-0.15087890625,-1.00537109375,0.30615234375,-2.25,-1.875,0.75
1.875,-4.0,-16.0,-1.0,2.0,-1.0,-1.0,-4.0,-2.0
1.88,3.0,3.0,3.0,10.0,-3.0,-3.0,-2.0,0.0,-0.3839111328125,-0.4560546875,0.68707275390625,0.4154052734375,-0.14404296875,-0.99365234375,0.29833984375,2.0625,-2.6875,0.3125
1.885,-5.0,-8.0,-8.0,-1.0,1.0,0.0,-1.0,-3.0,-0.38360595703125,-0.45574951171875,0.68743896484375,0.41546630859375,-0.138671875,-0.9619140625,0.2841796875,3.875,-1.125,1.375
1.89,-4.0,1.0,-4.0,12.0,2.0,-2.0,-2.0,-3.0,-0.38360595703125,-0.45538330078125,0.68768310546875,0.41534423828125,-0.1376953125,-0.95068359375,0.29150390625,1.8125,0.0625,2.5625
1.895,-2.0,6.0,-4.0,-4.0,0.0,1.0,1.0,0.0,-0.3837890625,-0.4554443359375,0.6878662109375,0.4149169921875,-0.15478515625,-0.966796875,0.29443359375,-1.0,-0.8125,2.4375
1.9,4.0,3.0,3.0,-6.0,-2.0,-1.0,-2.0,-1.0,-0.3837890625,-0.455322265625,0.68804931640625,0.41473388671875,-0.15234375,-0.966796875,0.31689453125,-0.875,-0.5,1.375
1.905,3.0,-4.0,6.0,1.0,1.0,2.0,-1.0,1.0,-0.38372802734375,-0.45538330078125,0.6881103515625,0.41461181640625,-0.15576171875,-0.96044921875,0.3134765625,-1.5,-0.625,0.375
1.91,1.0,-3.0,13.0,2.0,0.0,-5.0,-3.0,1.0
1.915,6.0,4.0,6.0,-12.0,-2.0,0.0,-1.0,-2.0,-0.38372802734375,-0.4556884765625,0.68798828125,0.41436767578125,-0.15771484375,-0.9697265625,0.30322265625,-2.375,-1.3125,-0.4375
1.92,11.0,-7.0,-5.0,-6.0,-5.0,-2.0,-2.0,2.0,-0.3836669921875,-0.45599365234375,0.6878662109375,0.4144287109375,-0.14794921875,-0.982421875,0.2998046875,-1.25,-0.4375,-0.9375
1.925,-3.0,-5.0,-5.0,0.0,-1.0,1.0,-1.0,-1.0,-0.3834228515625,-0.455810546875,0.68804931640625,0.41448974609375,-0.1552734375,-0.9794921875,0.30078125,2.0625,-0.625,-0.0625
1.93,-10.0,0.0,-4.0,-3.0,-1.0,-3.0,-1.0,-4.0,-0.3829345703125,-0.455322265625,0.68841552734375,0.41485595703125,-0.1533203125,-0.96826171875,0.29248046875,5.25,-0.875,-1.0
1.935,-3.0,-6.0,-11.0,-1.0,0.0,0.0,0.0,-1.0,-0.38250732421875,-0.45489501953125,0.68865966796875,0.415283203125,-0.1435546875,-0.95849609375,0.29931640625,4.0625,0.0625,-0.8125
1.94,-8.0,-13.0,-18.0,-11.0,-3.0,-2.0,1.0,-3.0,-0.382568359375,-0.45452880859375,0.688720703125,0.41552734375,-0.150390625,-0.94921875,0.30810546875,0.875,1.6875,0.3125
1.945,-9.0,1.0,-10.0,0.0,-3.0,-2.0,-3.0,-2.0,-0.38287353515625,-0.4544677734375,0.68865966796875,0.4154052734375,-0.1552734375,-0.9599609375,0.3173828125,-2.0625,1.375,1.1875
1.95,-2.0,0.0,-1.0,-7.0,-1.0,0.0,0.0,-1.0,-0.38348388671875,-0.4549560546875,0.68829345703125,0.4149169921875,-0.1484375,-0.97314453125,0.29736328125,-5.125,0.9375,1.875
1.955,-22.0,-2.0,11.0,2.0,-2.0,-1.0,-1.0,-5.0,-0.3843994140625,-0.455078125,0.68798828125,0.4144287109375,-0.15673828125,-0.98388671875,0.29931640625,-4.4375,2.4375,3.1875
1.96,5.0,-2.0,-3.0,-8.0,-4.0,-5.0,0.0,0.0,-0.38494873046875,-0.454833984375,0.68798828125,0.414306640625,-0.158203125,-0.984375,0.2919921875,0.0,2.5,2.625
1.965,-6.0,-4.0,-8.0,-8.0,-5.0,-2.0,-3.0,-2.0
1.97,4.0,-1.0,10.0,9.0,-1.0,0.0,0.0,0.0,-0.38525390625,-0.45428466796875,0.68804931640625,0.4144287109375,-0.1533203125,-0.97216796875,0.29345703125,2.0625,2.6875,2.0
1.975,-5.0,2.0,2.0,-21.0,-4.0,-1.0,-4.0,-2.0,-0.38568115234375,-0.45391845703125,0.68804931640625,0.41448974609375,-0.16259765625,-0.9775390625,0.2841796875,-0.25,0.9375,0.625
1.98,13.0,8.0,-2.0,9.0,0.0,-1.0,1.0,2.0,-0.38580322265625,-0.45330810546875,0.68865966796875,0.41400146484375,-0.15673828125,-0.9619140625,0.27490234375,4.375,-0.9375,2.5
1.985,2.0,6.0,21.0,33.0,4.0,-3.0,0.0,1.0
1.99,0.0,0.0,-7.0,-6.0,-1.0,-2.0,1.0,-1.0,-0.38531494140625,-0.45263671875,0.689208984375,0.41424560546875,-0.1611328125,-0.95458984375,0.287109375,6.5625,-1.25,0.375
1.995,-1.0,4.0,-16.0,-16.0,-5.0,-1.0,0.0,-1.0,-0.3843994140625,-0.45208740234375,0.689697265625,0.41485595703125,-0.1640625,-0.9619140625,0.29736328125,7.1875,-1.875,-2.625
2.0,1.0,-2.0,-27.0,-19.0,-4.0,-2.0,-1.0,0.0,-0.38372802734375,-0.4521484375,0.68994140625,0.4150390625,-0.15478515625,-0.98779296875,0.3017578125,3.0,-2.9375,-1.6875
2.005,2.0,11.0,14.0,-6.0,-2.0,2.0,-2.0,-2.0,-0.38348388671875,-0.452392578125,0.6898193359375,0.41522216796875,-0.14697265625,-0.98583984375,0.29541015625,0.375,-0.6875,-1.3125
2.01,0.0,0.0,4.0,7.0,2.0,-3.0,-1.0,-1.0,-0.383056640625,-0.45166015625,0.69036865234375,0.41558837890625,-0.1591796875,-0.96923828125,0.29833984375,6.6875,-0.5,0.1875
2.015,-2.0,-4.0,-5.0,-1.0,-3.0,0.0,0.0,-1.0,-0.3819580078125,-0.45025634765625,0.69146728515625,0.41619873046875,-0.166015625,-0.95751953125,0.31103515625,12.0,-1.875,-0.25
2.02,3.0,-1.0,21.0,12.0,-1.0,-3.0,-3.0,0.0,-0.38116455078125,-0.448974609375,0.69219970703125,0.41705322265625,-0.154296875,-0.96533203125,0.34716796875,8.8125,0.875,-0.5625
2.025,5.0,-1.0,-5.0,-7.0,-2.0,0.0,0.0,1.0,-0.3807373046875,-0.44830322265625,0.69256591796875,0.4176025390625,-0.154296875,-0.97900390625,0.3544921875,3.5625,1.0625,-0.75
2.03,-7.0,4.0,-52.0,-1.0,1.0,-4.0,-5.0,-4.0,-0.380615234375,-0.44775390625,0.692626953125,0.41815185546875,-0.15771484375,-0.970703125,0.3232421875,3.4375,1.9375,-1.25
2.035,-3.0,-1.0,-54.0,-8.0,0.0,1.0,-1.0,-1.0,-0.380615234375,-0.44720458984375,0.69293212890625,0.41827392578125,-0.17578125,-0.97509765625,0.32373046875,3.1875,0.75,0.5625
2.04,0.0,-10.0,15.0,-3.0,0.0,0.0,0.0,0.0,-0.3798828125,-0.446044921875,0.69390869140625,0.4185791015625,-0.166015625,-0.94580078125,0.33154296875,8.625,-1.625,0.875
2.045,-2.0,4.0,31.0,9.0,11.0,1.0,-1.0,-3.0,-0.380126953125,-0.445556640625,0.693359375,0.4197998046875,-0.1513671875,-0.96044921875,0.32861328125,4.75,3.6875,-2.8125
2.05,-7.0,-9.0,-31.0,12.0,-4.0,-5.0,-7.0,-5.0
2.055,-2.0,-12.0,50.0,4.0,-19.0,-7.0,-2.0,-1.0,-0.3790283203125,-0.44183349609375,0.69439697265625,0.4229736328125,-0.16845703125,-0.93212890625,0.34814453125,14.5625,4.75,-2.3125
2.06,-4.0,14.0,74.0,63.0,-8.0,-9.0,-5.0,-6.0,-0.37774658203125,-0.43988037109375,0.69525146484375,0.4246826171875,-0.15625,-0.935546875,0.345703125,15.625,2.125,-4.0625
2.065,-6.0,-21.0,17.0,15.0,-7.0,-2.0,-1.0,-3.0,-0.37677001953125,-0.43914794921875,0.6956787109375,0.42572021484375,-0.16357421875,-0.92236328125,0.31494140625,9.3125,-0.875,-4.8125
2.07,-6.0,-13.0,-99.0,-80.0,-22.0,-7.0,-8.0,-7.0,-0.3753662109375,-0.43798828125,0.69659423828125,0.42657470703125,-0.150390625,-0.95703125,0.3310546875,13.0,-2.9375,-2.25
2.075,-1.0,-23.0,18.0,25.0,5.0,-2.0,-1.0,7.0,-0.37518310546875,-0.43731689453125,0.696533203125,0.4276123046875,-0.0869140625,-0.970703125,0.3525390625,5.125,5.3125,1.375
2.08,0.0,14.0,27.0,5.0,-11.0,-5.0,-4.0,3.0,-0.37432861328125,-0.4344482421875,0.69744873046875,0.42974853515625,-0.11962890625,-0.92919921875,0.37890625,17.8125,8.3125,-0.375
2.085,-1.0,-5.0,33.0,-19.0,-21.0,-3.0,-3.0,0.0,-0.37408447265625,-0.4315185546875,0.6982421875,0.43170166015625,-0.15283203125,-0.91943359375,0.4091796875,14.3125,9.75,-0.6875
2.09,-3.0,2.0,-48.0,44.0,10.0,-1.0,0.0,-4.0,-0.3741455078125,-0.42999267578125,0.69891357421875,0.4320068359375,-0.1865234375,-0.86572265625,0.38818359375,4.5625,2.9375,0.9375
2.095,-2.0,-12.0,-25.0,13.0,4.0,0.0,-2.0,0.0,-0.37518310546875,-0.4306640625,0.69842529296875,0.43121337890625,-0.1953125,-0.94091796875,0.32421875,-6.4375,0.25,0.5
2.1,-3.0,-37.0,-28.0,44.0,19.0,7.0,2.0,0.0,-0.37518310546875,-0.431640625,0.69683837890625,0.4327392578125,-0.1171875,-0.97119140625,0.353515625,6.5625,4.625,-5.3125
2.105,1.0,20.0,67.0,11.0,18.0,11.0,-1.0,-1.0
2.11,-1.0,8.0,10.0,-2.0,-9.0,-2.0,-1.0,-1.0,-0.37451171875,-0.429931640625,0.69708251953125,0.4346923828125,-0.16357421875,-0.9345703125,0.35107421875,13.375,5.375,-6.0
2.115,5.0,9.0,-49.0,-28.0,-6.0,-1.0,1.0,2.0,-0.3743896484375,-0.4288330078125,0.69720458984375,0.4356689453125,-0.16552734375,-0.90673828125,0.33447265625,7.6875,3.875,-3.0625
2.12,-5.0,-19.0,-18.0,-108.0,-52.0,-17.0,-6.0,-5.0,-0.37548828125,-0.43109130859375,0.695556640625,0.43511962890625,-0.1494140625,-0.943359375,0.31298828125,-11.0,-0.4375,-2.9375
2.125,1.0,6.0,33.0,-53.0,-22.0,-8.0,-3.0,0.0
2.13,-2.0,-5.0,-69.0,-81.0,32.0,14.0,6.0,1.0,-0.3768310546875,-0.43280029296875,0.69366455078125,0.435302734375,-0.0927734375,-0.95654296875,0.333984375,-13.4375,6.875,-2.25
2.135,3.0,-3.0,-54.0,-98.0,-35.0,-7.0,0.0,2.0,-0.37841796875,-0.43365478515625,0.69207763671875,0.43560791015625,-0.13427734375,-0.97509765625,0.35888671875,-10.875,8.625,-1.6875
2.14,-31.0,-58.0,-63.0,9.0,-72.0,-38.0,-23.0,-24.0,-0.3807373046875,-0.43389892578125,0.69091796875,0.4351806640625,-0.2041015625,-0.9306640625,0.33154296875,-10.6875,8.5625,0.375
2.145,14.0,-6.0,16.0,38.0,6.0,9.0,9.0,13.0,-0.383056640625,-0.4354248046875,0.6890869140625,0.4344482421875,-0.16455078125,-0.9228515625,0.33544921875,-18.75,7.5,-0.375
2.15,2.0,29.0,59.0,40.0,18.0,8.0,-2.0,-2.0,-0.38568115234375,-0.43780517578125,0.68646240234375,0.43402099609375,-0.12255859375,-0.9609375,0.32470703125,-23.4375,9.5625,-1.5625
2.155,16.0,23.0,-17.0,33.0,40.0,16.0,12.0,10.0,-0.38861083984375,-0.440185546875,0.6837158203125,0.43328857421875,-0.14599609375,-0.97216796875,0.32763671875,-25.5,10.1875,-1.4375
2.16,2.0,20.0,-60.0,-13.0,-6.0,1.0,-3.0,4.0,-0.3917236328125,-0.44232177734375,0.68109130859375,0.4324951171875,-0.15283203125,-0.986328125,0.322265625,-25.0,10.875,0.0625
2.165,-9.0,-14.0,7.0,33.0,21.0,3.0,3.0,-6.0,-0.3966064453125,-0.44464111328125,0.67742919921875,0.43145751953125,-0.14013671875,-0.95263671875,0.2998046875,-15.6875,9.5,3.5625
2.17,1.0,-1.0,65.0,118.0,28.0,2.0,1.0,-1.0,-0.40106201171875,-0.4471435546875,0.674072265625,0.429931640625,-0.17041015625,-0.98583984375,0.291015625,-14.0625,6.5,-0.1875
2.175,0.0,-21.0,-41.0,-7.0,19.0,5.0,3.0,0.0
2.18,1.0,-17.0,22.0,-24.0,2.0,-1.0,-1.0,-2.0,-0.4019775390625,-0.447265625,0.67315673828125,0.430419921875,-0.134765625,-0.9453125,0.2841796875,-4.375,7.0625,-0.625
2.185,10.0,21.0,93.0,52.0,15.0,8.0,5.0,4.0,-0.40411376953125,-0.44757080078125,0.6719970703125,0.4298095703125,-0.1513671875,-0.97265625,0.3037109375,-10.0,2.6875,3.6875
2.19,-24.0,-7.0,-75.0,-53.0,-54.0,-23.0,-18.0,-19.0,-0.40496826171875,-0.44757080078125,0.6719970703125,0.42901611328125,-0.17333984375,-0.99267578125,0.2744140625,-3.3125,0.9375,4.75
2.195,5.0,49.0,-45.0,-19.0,-11.0,2.0,3.0,3.0,-0.4052734375,-0.4471435546875,0.67193603515625,0.42926025390625,-0.1552734375,-0.9638671875,0.27783203125,1.0625,3.125,1.1875
2.2,11.0,4.0,28.0,9.0,10.0,6.0,6.0,10.0,-0.406494140625,-0.447021484375,0.67132568359375,0.42919921875,-0.15673828125,-0.97802734375,0.2724609375,-3.8125,2.75,3.25
2.205,12.0,18.0,-12.0,3.0,2.0,4.0,4.0,7.0,-0.40753173828125,-0.447509765625,0.671142578125,0.4281005859375,-0.1796875,-0.9833984375,0.2744140625,-7.3125,0.125,4.4375
2.21,6.0,28.0,-19.0,-2.0,1.0,7.0,3.0,3.0,-0.408203125,-0.447998046875,0.67083740234375,0.4273681640625,-0.19140625,-0.9990234375,0.27392578125,-5.8125,-0.125,1.6875
2.215,-5.0,-1.0,-22.0,-84.0,-17.0,-8.0,-7.0,-7.0,-0.407958984375,-0.44757080078125,0.6710205078125,0.427734375,-0.1630859375,-0.98388671875,0.271484375,3.75,0.625,-0.1875
2.22,-3.0,18.0,-47.0,77.0,56.0,12.0,2.0,-2.0,-0.40765380859375,-0.447021484375,0.67138671875,0.42803955078125,-0.16259765625,-0.974609375,0.27880859375,4.375,0.1875,0.5
2.225,-1.0,19.0,-25.0,5.0,-41.0,-16.0,-5.0,-4.0,-0.4075927734375,-0.44647216796875,0.6719970703125,0.427734375,-0.1923828125,-0.9716796875,0.265625,3.5625,-1.6875,2.375
2.23,4.0,-2.0,31.0,-45.0,-3.0,-4.0,-4.0,-1.0,-0.4072265625,-0.4462890625,0.67242431640625,0.42755126953125,-0.2060546875,-0.986328125,0.26708984375,3.3125,-3.1875,-0.9375
2.235,-12.0,-46.0,32.0,-55.0,-20.0,1.0,-2.0,-3.0,-0.40655517578125,-0.44622802734375,0.6727294921875,0.42779541015625,-0.14794921875,-0.9736328125,0.26220703125,3.9375,-2.375,-0.625
2.24,-7.0,1.0,32.0,91.0,29.0,7.0,-1.0,5.0,-0.40643310546875,-0.446044921875,0.67291259765625,0.42779541015625,-0.1533203125,-0.9619140625,0.2763671875,1.5,-0.0625,1.5
2.245,1.0,-11.0,32.0,35.0,-19.0,-3.0,4.0,3.0,-0.4071044921875,-0.4462890625,0.6728515625,0.42706298828125,-0.189453125,-0.962890625,0.27880859375,-4.6875,-0.125,2.5
2.25,-4.0,-24.0,14.0,-16.0,0.0,-2.0,0.0,-2.0,-0.407470703125,-0.44683837890625,0.67266845703125,0.4263916015625,-0.18603515625,-0.9892578125,0.287109375,-5.6875,-1.4375,1.1875
2.255,-0.40728759765625,-0.44696044921875,0.6728515625,0.4261474609375,-0.18896484375,-0.9990234375,0.2744140625,0.5,-2.4375,-0.1875
2.26,0.0,-2.0,-2.0,-29.0,-4.0,-3.0,0.0,1.0,-0.40631103515625,-0.44635009765625,0.67376708984375,0.42620849609375,-0.16552734375,-0.96875,0.27880859375,7.125,-4.125,1.0625
2.265,-5.0,7.0,8.0,-26.0,-8.0,-3.0,-2.0,-2.0,-0.40545654296875,-0.4454345703125,0.67498779296875,0.4261474609375,-0.166015625,-0.95263671875,0.2841796875,7.8125,-4.125,3.3125
2.27,-2.0,-8.0,6.0,-14.0,6.0,2.0,1.0,-1.0,-0.40460205078125,-0.444580078125,0.67626953125,0.42578125,-0.16455078125,-0.95654296875,0.2958984375,6.875,-4.9375,4.75
2.275,0.0,6.0,19.0,-7.0,-10.0,-1.0,-1.0,-1.0,-0.403564453125,-0.44378662109375,0.67755126953125,0.425537109375,-0.15478515625,-0.9951171875,0.2919921875,8.625,-5.125,4.75
2.28,2.0,7.0,-53.0,2.0,0.0,-1.0,-2.0,1.0
2.285,-8.0,15.0,-9.0,-23.0,5.0,3.0,-2.0,-3.0,-0.40167236328125,-0.44329833984375,0.67974853515625,0.42431640625,-0.17041015625,-0.9833984375,0.35107421875,3.5,-6.5,4.875
2.29,-1.0,-13.0,-1.0,-20.0,-3.0,-4.0,-2.0,-2.0,-0.40045166015625,-0.44091796875,0.682373046875,0.4237060546875,-0.2265625,-0.95556640625,0.28125,18.3125,-7.75,7.75
2.295,-1.0,-16.0,28.0,-26.0,-9.0,-1.0,3.0,5.0,-0.39910888671875,-0.44091796875,0.68402099609375,0.42236328125,-0.1064453125,-0.982421875,0.31494140625,-1.375,-3.4375,3.625
2.3,-14.0,-6.0,-10.0,-4.0,-1.0,-2.0,-7.0,-4.0
2.305,-18.0,0.0,6.0,13.0,2.0,4.0,3.0,-8.0,-0.39788818359375,-0.43914794921875,0.68560791015625,0.42279052734375,-0.15087890625,-1.00146484375,0.3310546875,14.0,-2.4375,5.25
2.31,10.0,-4.0,-20.0,-20.0,-7.0,-4.0,-4.0,5.0,-0.39703369140625,-0.43682861328125,0.687744140625,0.42242431640625,-0.20751953125,-0.97119140625,0.29541015625,16.75,-4.1875,8.25
2.315,25.0,8.0,3.0,10.0,-3.0,-9.0,-8.0,8.0,-0.3958740234375,-0.434814453125,0.69024658203125,0.421630859375,-0.21142578125,-0.9404296875,0.2861328125,16.9375,-8.25,8.8125
2.32,10.0,9.0,12.0,5.0,0.0,2.0,11.0,-4.0,-0.394287109375,-0.43353271484375,0.69207763671875,0.42144775390625,-0.162109375,-0.94384765625,0.30126953125,13.8125,-7.6875,5.3125
2.325,-14.0,-2.0,10.0,21.0,5.0,3.0,4.0,-5.0,-0.39306640625,-0.43170166015625,0.69366455078125,0.421875,-0.14599609375,-0.95458984375,0.34130859375,14.125,-1.9375,5.875
2.33,4.0,6.0,3.0,0.0,-1.0,0.0,-4.0,2.0,-0.3934326171875,-0.42987060546875,0.69488525390625,0.42138671875,-0.19873046875,-0.93603515625,0.3505859375,6.5625,2.0,9.3125
2.335,-7.0,-2.0,1.0,-7.0,-4.0,-6.0,-24.0,-2.0,-0.39373779296875,-0.42877197265625,0.6966552734375,0.4193115234375,-0.23193359375,-0.921875,0.3369140625,2.0625,-6.125,12.5
2.34,1.0,-5.0,17.0,-6.0,-5.0,-2.0,-1.0,-16.0,-0.39215087890625,-0.42822265625,0.69866943359375,0.41790771484375,-0.1728515625,-0.93212890625,0.3115234375,9.0,-12.8125,9.0625
2.345,3.0,7.0,5.0,4.0,0.0,-3.0,-6.0,-9.0,-0.3878173828125,-0.42376708984375,0.70294189453125,0.41943359375,-0.14990234375,-0.9462890625,0.35791015625,23.375,0.625,6.625
2.35
2.355,-34.0,-2.0,18.0,9.0,3.0,-8.0,-5.0,-8.0,-0.3875732421875,-0.4200439453125,0.705078125,0.41973876953125,-0.2646484375,-0.9072265625,0.3330078125,22.0625,2.1875,6.9375
2.36,4.0,4.0,10.0,0.0,-2.0,-2.0,0.0,0.0,-0.38665771484375,-0.42138671875,0.7066650390625,0.41656494140625,-0.20751953125,-0.8896484375,0.34326171875,-11.9375,-12.75,-1.375
2.365,-8.0,-13.0,-10.0,1.0,2.0,-1.0,-2.0,13.0
2.37,1.0,5.0,-4.0,-9.0,0.0,-2.0,-3.0,-5.0,-0.38641357421875,-0.42364501953125,0.70611572265625,0.41546630859375,-0.15966796875,-0.9541015625,0.3427734375,-11.5,-7.125,0.125
2.375,8.0,-1.0,3.0,23.0,-3.0,6.0,-2.0,0.0,-0.38690185546875,-0.4268798828125,0.70489501953125,0.41375732421875,-0.2021484375,-0.93408203125,0.32421875,-7.5,-4.9375,-1.375
2.38,-10.0,-6.0,12.0,-5.0,-6.0,-5.0,-2.0,-3.0,-0.38568115234375,-0.42828369140625,0.705078125,0.41314697265625,-0.1904296875,-0.9130859375,0.30078125,-1.75,-10.375,-3.375
2.385,-2.0,-2.0,-2.0,3.0,-3.0,-2.0,-4.0,-3.0,-0.3839111328125,-0.42913818359375,0.70562744140625,0.4129638671875,-0.14892578125,-0.9521484375,0.31591796875,3.5625,-10.5,-1.125
2.39,3.0,-1.0,5.0,5.0,1.0,0.0,0.0,4.0,-0.3817138671875,-0.428466796875,0.706787109375,0.41363525390625,-0.15673828125,-0.9609375,0.34326171875,13.0625,-7.375,-1.6875
2.395,-7.0,-14.0,-10.0,-6.0,-5.0,-3.0,-3.0,1.0,-0.37945556640625,-0.4268798828125,0.708251953125,0.4149169921875,-0.18310546875,-0.9228515625,0.361328125,17.375,-5.375,-3.875
2.4,2.0,-1.0,-7.0,-1.0,-2.0,-2.0,-2.0,-1.0,-0.37786865234375,-0.42626953125,0.708984375,0.415771484375,-0.1923828125,-0.87548828125,0.357421875,8.4375,-4.75,-5.375
2.405,3.0,0.0,12.0,5.0,-1.0,-4.0,-2.0,0.0,-0.37738037109375,-0.4281005859375,0.7083740234375,0.415283203125,-0.20556640625,-0.9111328125,0.33544921875,-8.3125,-6.875,-6.4375
2.41,0.0,-1.0,-2.0,2.0,0.0,-1.0,-1.0,-4.0,-0.37652587890625,-0.4306640625,0.707763671875,0.4144287109375,-0.18310546875,-0.970703125,0.337890625,-10.125,-10.8125,-5.625
2.415,-1.0,7.0,-38.0,-13.0,0.0,1.0,-2.0,-4.0,-0.3751220703125,-0.43243408203125,0.707763671875,0.4139404296875,-0.17041015625,-1.015625,0.35302734375,-3.5,-11.0,-3.875
2.42,-9.0,-7.0,2.0,12.0,2.0,-2.0,2.0,4.0,-0.37310791015625,-0.43292236328125,0.70831298828125,0.414306640625,-0.16357421875,-0.99169921875,0.376953125,4.75,-8.8125,-5.1875
2.425,1.0,3.0,7.0,-6.0,2.0,4.0,-1.0,-4.0,-0.37103271484375,-0.43231201171875,0.70892333984375,0.415771484375,-0.16357421875,-0.953125,0.40380859375,9.5,-4.375,-7.625
2.43,0.0,0.0,-8.0,-5.0,-1.0,0.0,-2.0,-1.0,-0.36865234375,-0.4322509765625,0.71014404296875,0.41583251953125,-0.19287109375,-0.92529296875,0.3740234375,-2.1875,-8.0,-2.3125
2.435,0.0,7.0,21.0,8.0,0.0,-3.0,1.0,-3.0,-0.36798095703125,-0.43353271484375,0.71002197265625,0.41534423828125,-0.1474609375,-0.94775390625,0.373046875,-5.75,-6.375,-1.375
2.44,5.0,9.0,4.0,-9.0,0.0,-1.0,2.0,4.0,-0.367431640625,-0.43450927734375,0.7098388671875,0.41510009765625,-0.15869140625,-0.98388671875,0.37744140625,-3.5625,-4.375,-2.0625
2.445,-1.0,3.0,-11.0,0.0,-2.0,-1.0,-5.0,-2.0,-0.36700439453125,-0.434814453125,0.7098388671875,0.41510009765625,-0.171875,-0.9755859375,0.3662109375,-0.0625,-2.6875,-2.0
2.45,-2.0,2.0,8.0,8.0,-2.0,0.0,0.0,-1.0,-0.3663330078125,-0.43426513671875,0.71044921875,0.41534423828125,-0.17041015625,-0.943359375,0.36767578125,5.4375,-2.1875,-0.625
2.455,1.0,-4.0,2.0,7.0,0.0,1.0,-1.0,-2.0,-0.36602783203125,-0.43402099609375,0.710693359375,0.4154052734375,-0.16796875,-0.9267578125,0.36669921875,1.6875,-1.125,-0.25
2.46,-1.0,-3.0,-6.0,-7.0,-1.0,-1.0,-1.0,-2.0,-0.3662109375,-0.43463134765625,0.7105712890625,0.41485595703125,-0.16455078125,-0.93408203125,0.3671875,-3.25,-1.0,0.8125
2.465,-3.0,-9.0,-6.0,-5.0,-6.0,-5.0,-3.0,1.0,-0.3662109375,-0.4356689453125,0.710205078125,0.41424560546875,-0.150390625,-0.93994140625,0.36669921875,-7.0625,-2.8125,-0.0625
2.47,-13.0,-1.0,3.0,12.0,3.0,-1.0,-1.0,-5.0,-0.366455078125,-0.4368896484375,0.70977783203125,0.41357421875,-0.1513671875,-0.94287109375,0.35546875,-8.0,-2.4375,0.6875
2.475,9.0,-2.0,-22.0,-11.0,-3.0,-2.0,-1.0,2.0,-0.36688232421875,-0.43756103515625,0.70953369140625,0.41290283203125,-0.16064453125,-0.9541015625,0.361328125,-5.8125,-0.9375,1.75
2.48,-5.0,-4.0,9.0,8.0,-1.0,0.0,0.0,-1.0,-0.36700439453125,-0.43768310546875,0.70947265625,0.41278076171875,-0.1689453125,-0.95947265625,0.3671875,-2.0,-0.125,0.25
2.485,-6.0,-1.0,18.0,3.0,-3.0,-2.0,-1.0,-3.0,-0.3665771484375,-0.437744140625,0.7095947265625,0.41290283203125,-0.15771484375,-0.962890625,0.3662109375,1.3125,-1.5625,-0.875
2.49,1.0,0.0,-6.0,1.0,-1.0,-1.0,1.0,1.0,-0.36602783203125,-0.43780517578125,0.70965576171875,0.41314697265625,-0.14111328125,-0.9521484375,0.3681640625,1.0625,-1.0,-1.0625
2.495,-8.0,3.0,31.0,6.0,-3.0,-1.0,0.0,1.0,-0.36578369140625,-0.43768310546875,0.709716796875,0.413330078125,-0.15234375,-0.931640625,0.3525390625,1.5,-0.4375,-0.6875
2.5,-2.0,-4.0,-2.0,-3.0,-4.0,-2.0,-3.0,-2.0,-0.36602783203125,-0.4378662109375,0.70965576171875,0.41314697265625,-0.1494140625,-0.9248046875,0.34521484375,-1.8125,0.3125,1.3125
2.505,-1.0,-16.0,-2.0,-3.0,0.0,-2.0,-1.0,4.0
2.51,1.0,14.0,1.0,0.0,5.0,1.0,-1.0,-2.0,-0.3663330078125,-0.43853759765625,0.7093505859375,0.41265869140625,-0.15625,-0.9404296875,0.36279296875,-5.75,-0.6875,1.0625
2.515,-5.0,-3.0,-15.0,-3.0,0.0,0.0,-3.0,-4.0,-0.366943359375,-0.4393310546875,0.7088623046875,0.412109375,-0.16357421875,-0.9658203125,0.34912109375,-6.375,0.25,0.9375
2.52,0.0,-1.0,-12.0,-9.0,-2.0,0.0,-1.0,-1.0,-0.3671875,-0.439453125,0.70880126953125,0.41192626953125,-0.1611328125,-0.9755859375,0.35400390625,-1.3125,0.3125,1.4375
2.525,-1.0,-1.0,-6.0,-34.0,-9.0,-3.0,-2.0,-1.0,-0.36737060546875,-0.4393310546875,0.708740234375,0.41192626953125,-0.146484375,-0.9638671875,0.359375,-0.25,1.5,1.6875
2.53,-3.0,3.0,18.0,25.0,1.0,-1.0,-1.0,-3.0,-0.36798095703125,-0.43914794921875,0.70867919921875,0.4117431640625,-0.1650390625,-0.95751953125,0.34912109375,-0.8125,2.625,2.5
2.535,-5.0,-2.0,34.0,12.0,-4.0,-5.0,-4.0,-3.0,-0.368408203125,-0.43865966796875,0.70904541015625,0.4112548828125,-0.17529296875,-0.9677734375,0.3271484375,1.625,-1.4375,1.3125
2.54,1.0,-1.0,-11.0,8.0,2.0,-1.0,0.0,1.0,-0.36883544921875,-0.4393310546875,0.70849609375,0.41107177734375,-0.16357421875,-0.966796875,0.33154296875,-3.875,0.6875,-0.625
2.545,-1.0,-4.0,-21.0,8.0,4.0,1.0,0.0,0.0,-0.369384765625,-0.43902587890625,0.70843505859375,0.4110107421875,-0.17529296875,-0.966796875,0.33740234375,0.8125,2.6875,1.6875
2.55,1.0,-8.0,21.0,-1.0,-3.0,-1.0,0.0,-2.0,-0.36956787109375,-0.438232421875,0.7088623046875,0.41094970703125,-0.18603515625,-0.96533203125,0.3369140625,4.9375,0.875,2.25
2.555,-5.0,2.0,7.0,12.0,-3.0,-5.0,-5.0,-5.0,-0.36944580078125,-0.437255859375,0.70941162109375,0.41119384765625,-0.17138671875,-0.94189453125,0.35107421875,6.1875,1.125,1.875
2.56,-2.0,-1.0,-27.0,-22.0,-3.0,0.0,-3.0,1.0,-0.368896484375,-0.43597412109375,0.710205078125,0.41168212890625,-0.1806640625,-0.96142578125,0.3779296875,8.5,0.0,0.625
2.565,-6.0,-5.0,-5.0,3.0,-2.0,0.0,-3.0,-6.0,-0.36810302734375,-0.4349365234375,0.71087646484375,0.41229248046875,-0.162109375,-0.96240234375,0.38427734375,7.5,-0.1875,-0.125
2.57,0.0,2.0,19.0,-15.0,-4.0,1.0,-2.0,0.0,-0.3677978515625,-0.4339599609375,0.71124267578125,0.41290283203125,-0.16650390625,-0.9384765625,0.36376953125,6.625,1.9375,-0.125
2.575,3.0,6.0,-4.0,12.0,0.0,-1.0,1.0,2.0,-0.3682861328125,-0.4334716796875,0.7113037109375,0.412841796875,-0.19189453125,-0.955078125,0.36474609375,1.0,2.25,1.25
2.58,-2.0,-13.0,26.0,7.0,-7.0,-3.0,-2.0,-2.0,-0.36798095703125,-0.4320068359375,0.71221923828125,0.4132080078125,-0.1689453125,-0.92724609375,0.37841796875,8.5,1.375,2.875
2.585,-2.0,6.0,-37.0,-26.0,-2.0,-3.0,-1.0,-5.0,-0.367431640625,-0.430908203125,0.71282958984375,0.4136962890625,-0.15673828125,-0.955078125,0.37841796875,7.9375,1.0,1.625
2.59,-13.0,-3.0,-74.0,-40.0,-7.0,-5.0,-4.0,-4.0,-0.367431640625,-0.4298095703125,0.7130126953125,0.41448974609375,-0.15283203125,-0.92431640625,0.39306640625,4.5,4.875,0.3125
2.595,5.0,3.0,43.0,22.0,1.0,0.0,0.0,3.0,-0.36822509765625,-0.42755126953125,0.71319580078125,0.41583251953125,-0.173828125,-0.927734375,0.3818359375,6.0,5.4375,1.25
2.6,-6.0,-41.0,-128.0,-31.0,-6.0,0.0,0.0,-4.0,-0.3687744140625,-0.427001953125,0.7130126953125,0.416259765625,-0.16259765625,-0.95361328125,0.36669921875,2.0,5.375,1.375
2.605,-2.0,6.0,-9.0,15.0,-1.0,0.0,-1.0,-3.0,-0.369384765625,-0.42626953125,0.7127685546875,0.41693115234375,-0.15966796875,-0.9208984375,0.37939453125,1.5,6.6875,0.25
2.61,-5.0,-20.0,-62.0,-42.0,-8.0,-5.0,-1.0,-1.0,-0.36956787109375,-0.4248046875,0.71295166015625,0.41790771484375,-0.17333984375,-0.94189453125,0.3779296875,7.6875,6.5,0.375
2.615,-7.0,-6.0,37.0,30.0,2.0,-1.0,0.0,-1.0,-0.37054443359375,-0.42413330078125,0.71246337890625,0.4185791015625,-0.1796875,-0.9306640625,0.376953125,0.375,8.1875,-0.625
2.62,7.0,-1.0,34.0,21.0,3.0,-1.0,1.0,2.0,-0.37109375,-0.423583984375,0.7119140625,0.4195556640625,-0.1845703125,-0.92529296875,0.36279296875,2.0625,6.5625,-3.1875
2.625,1.0,-3.0,39.0,29.0,3.0,0.0,0.0,-2.0,-0.3717041015625,-0.423095703125,0.71142578125,0.42034912109375,-0.185546875,-0.962890625,0.359375,2.5625,6.375,-2.375
2.63,-7.0,23.0,12.0,22.0,4.0,-2.0,-4.0,-2.0,-0.3717041015625,-0.422119140625,0.71142578125,0.42132568359375,-0.17138671875,-0.94921875,0.3603515625,7.3125,4.5,-1.1875
2.635,-4.0,16.0,-81.0,-68.0,-9.0,-3.0,-3.0,-4.0,-0.37200927734375,-0.4208984375,0.71136474609375,0.42236328125,-0.17431640625,-0.92822265625,0.37060546875,6.8125,6.9375,-1.0625
2.64,1.0,-30.0,-24.0,-19.0,4.0,2.0,0.0,-1.0,-0.37237548828125,-0.42010498046875,0.711181640625,0.423095703125,-0.1513671875,-0.91552734375,0.373046875,2.9375,6.125,0.6875
2.645,0.0,-19.0,-3.0,5.0,-1.0,-1.0,-1.0,-2.0,-0.373779296875,-0.419921875,0.71038818359375,0.4234619140625,-0.17724609375,-0.8935546875,0.376953125,-4.6875,8.75,0.0625
2.65,-2.0,29.0,92.0,68.0,8.0,0.0,-4.0,-4.0,-0.37548828125,-0.42041015625,0.7091064453125,0.423583984375,-0.20068359375,-0.91943359375,0.375,-9.6875,8.3125,-2.25
2.655,1.0,16.0,103.0,65.0,7.0,1.0,1.0,0.0,-0.3765869140625,-0.4208984375,0.70794677734375,0.424072265625,-0.1728515625,-0.96728515625,0.3876953125,-7.0625,7.375,-2.1875
2.66,-6.0,15.0,41.0,16.0,-3.0,-5.0,-3.0,-6.0,-0.37774658203125,-0.4202880859375,0.70623779296875,0.426513671875,-0.1943359375,-0.89990234375,0.38818359375,1.375,6.6875,-5.9375
2.665,-16.0,-8.0,-23.0,-8.0,-11.0,-7.0,-5.0,-9.0
2.67,7.0,-7.0,-11.0,-2.0,10.0,7.0,4.0,5.0,-0.37847900390625,-0.42041015625,0.70526123046875,0.42730712890625,-0.166015625,-0.908203125,0.36279296875,-3.1875,6.9375,-3.75
2.675,0.0,-37.0,70.0,35.0,8.0,5.0,7.0,5.0
2.68,-2.0,-4.0,-75.0,12.0,1.0,-5.0,1.0,2.0,-0.38055419921875,-0.4219970703125,0.703125,0.42742919921875,-0.16650390625,-0.916015625,0.35400390625,-16.5,9.625,-3.6875
2.685,26.0,57.0,100.0,99.0,48.0,25.0,17.0,16.0,-0.38262939453125,-0.42315673828125,0.7012939453125,0.4273681640625,-0.2001953125,-0.916015625,0.3642578125,-15.3125,8.875,-3.5
2.69,-7.0,14.0,27.0,69.0,10.0,-9.0,-12.0,-9.0,-0.3861083984375,-0.4261474609375,0.69677734375,0.42877197265625,-0.1484375,-0.9443359375,0.32861328125,-14.75,10.75,-8.5
2.695,-0.3876953125,-0.42803955078125,0.6937255859375,0.430419921875,-0.1396484375,-0.93359375,0.32568359375,-14.625,13.0625,-12.3125
2.7,2.0,18.0,1.0,11.0,26.0,7.0,0.0,0.0,-0.39056396484375,-0.4302978515625,0.68994140625,0.4315185546875,-0.16162109375,-0.9814453125,0.32177734375,-21.6875,17.0625,-10.6875
2.705,3.0,1.0,20.0,20.0,-20.0,-3.0,-2.0,-2.0,-0.3936767578125,-0.4322509765625,0.6864013671875,0.43243408203125,-0.12939453125,-0.953125,0.29736328125,-20.25,18.4375,-6.5625
2.71,0.0,12.0,6.0,-22.0,-8.0,5.0,1.0,1.0,-0.39764404296875,-0.43426513671875,0.68243408203125,0.43304443359375,-0.17138671875,-0.9482421875,0.314453125,-26.75,20.9375,-7.125
2.715,9.0,18.0,-14.0,-33.0,5.0,9.0,2.0,2.0,-0.402099609375,-0.43792724609375,0.6776123046875,0.432861328125,-0.1748046875,-0.97607421875,0.27978515625,-36.3125,18.5625,-8.8125
2.72,13.0,21.0,58.0,42.0,-1.0,-2.0,5.0,7.0,-0.40643310546875,-0.4412841796875,0.67303466796875,0.43255615234375,-0.15576171875,-0.97216796875,0.2705078125,-34.8125,18.1875,-6.25
2.725,-9.0,-21.0,-39.0,5.0,16.0,-1.0,-4.0,-3.0,-0.41375732421875,-0.44647216796875,0.66552734375,0.43194580078125,-0.14306640625,-1.01123046875,0.28125,-24.875,15.5,-2.3125
2.73,-11.0,15.0,16.0,-33.0,-5.0,-1.0,-1.0,-5.0,-0.416259765625,-0.44677734375,0.66363525390625,0.43206787109375,-0.18212890625,-0.9443359375,0.27734375,-13.8125,13.4375,-0.5625
2.735,-1.0,-47.0,-116.0,2.0,5.0,-1.0,0.0,-1.0,-0.4183349609375,-0.44757080078125,0.66192626953125,0.43182373046875,-0.2080078125,-0.982421875,0.271484375,-14.125,8.9375,-2.1875
2.74,-27.0,-59.0,-47.0,-4.0,-6.0,-6.0,-10.0,-9.0
2.745,4.0,7.0,-21.0,89.0,32.0,5.0,3.0,0.0,-0.41912841796875,-0.4481201171875,0.6610107421875,0.43194580078125,-0.19580078125,-0.9892578125,0.26904296875,-6.8125,3.875,-3.6875
2.75,5.0,-13.0,6.0,-41.0,-12.0,2.0,3.0,9.0,-0.419189453125,-0.4482421875,0.66094970703125,0.43182373046875,-0.1845703125,-0.9765625,0.25634765625,-1.6875,-0.375,-0.75
2.755,5.0,15.0,46.0,-37.0,-14.0,1.0,3.0,-2.0,-0.41864013671875,-0.44805908203125,0.66131591796875,0.4320068359375,-0.1416015625,-0.95654296875,0.23828125,4.375,-1.6875,0.875
2.76,-13.0,-26.0,-109.0,-45.0,-27.0,-9.0,-7.0,-8.0,-0.41802978515625,-0.44757080078125,0.6617431640625,0.43243408203125,-0.18017578125,-0.93115234375,0.2412109375,5.4375,-1.25,-2.25
2.765,2.0,-8.0,-65.0,-26.0,-7.0,-4.0,-5.0,-2.0,-0.41778564453125,-0.44769287109375,0.66156005859375,0.432861328125,-0.15283203125,-0.9638671875,0.2421875,1.5625,0.1875,-2.1875
2.77,-8.0,24.0,11.0,-19.0,-43.0,-15.0,-7.0,-3.0,-0.417724609375,-0.44775390625,0.6614990234375,0.43292236328125,-0.14892578125,-0.9873046875,0.2373046875,-0.25,0.75,-0.1875
2.775,-18.0,-14.0,-12.0,-74.0,-48.0,-26.0,-15.0,-15.0,-0.41851806640625,-0.4482421875,0.6611328125,0.4322509765625,-0.17041015625,-0.96875,0.24462890625,-5.75,0.6875,2.375
2.78,-7.0,36.0,41.0,11.0,0.0,-1.0,-4.0,-13.0,-0.41925048828125,-0.44873046875,0.66064453125,0.43170166015625,-0.18505859375,-0.99609375,0.24755859375,-5.75,1.1875,0.6875
2.785,-21.0,7.0,-66.0,-64.0,-56.0,-27.0,-15.0,-14.0,-0.4185791015625,-0.44970703125,0.65985107421875,0.4326171875,-0.1572265625,-0.97216796875,0.25,-2.25,-1.5625,-5.5
2.79,1.0,-38.0,-51.0,3.0,11.0,3.0,-5.0,1.0
2.795,8.0,34.0,-19.0,-17.0,-3.0,5.0,7.0,11.0,-0.41851806640625,-0.4501953125,0.6595458984375,0.43267822265625,-0.17431640625,-0.97412109375,0.2626953125,-3.1875,-0.5625,-2.875
2.8,2.0,14.0,23.0,34.0,-13.0,-3.0,-1.0,0.0,-0.41912841796875,-0.45111083984375,0.658935546875,0.431884765625,-0.171875,-0.970703125,0.2685546875,-4.8125,0.75,0.4375
2.805,3.0,-19.0,-8.0,-84.0,-23.0,-3.0,3.0,1.0
2.81,4.0,30.0,10.0,29.0,-4.0,-6.0,-1.0,-3.0,-0.41900634765625,-0.45098876953125,0.658935546875,0.43231201171875,-0.19384765625,-0.98046875,0.2626953125,0.8125,0.5625,-3.4375
2.815,0.0,-18.0,-23.0,-33.0,6.0,4.0,5.0,1.0,-0.41876220703125,-0.450927734375,0.65875244140625,0.43280029296875,-0.1484375,-0.94189453125,0.2666015625,-0.3125,1.375,-2.0625
2.82,-11.0,28.0,34.0,-16.0,-8.0,-3.0,-5.0,-7.0,-0.41937255859375,-0.45123291015625,0.658447265625,0.43243408203125,-0.1484375,-0.9755859375,0.27392578125,-6.4375,1.875,2.4375
2.825,-9.0,7.0,-29.0,10.0,4.0,-1.0,2.0,-6.0,-0.42022705078125,-0.45172119140625,0.65802001953125,0.43170166015625,-0.17236328125,-0.984375,0.26611328125,-8.3125,1.3125,2.3125
2.83,5.0,0.0,35.0,-49.0,-14.0,-6.0,-6.0,-6.0,-0.42034912109375,-0.451416015625,0.65838623046875,0.43133544921875,-0.197265625,-1.01611328125,0.26708984375,0.25,-0.875,1.6875
2.835,14.0,23.0,13.0,38.0,16.0,11.0,4.0,5.0,-0.41912841796875,-0.450439453125,0.65936279296875,0.43206787109375,-0.14892578125,-0.9716796875,0.2470703125,10.625,-2.1875,0.0625
2.84,-9.0,4.0,52.0,-69.0,-6.0,-6.0,-9.0,-9.0,-0.41790771484375,-0.44927978515625,0.6605224609375,0.43267822265625,-0.14013671875,-0.95751953125,0.23779296875,12.5,-2.875,1.5
2.845,-1.0,-2.0,21.0,39.0,4.0,-4.0,-3.0,-1.0,-0.41741943359375,-0.448974609375,0.6614990234375,0.43194580078125,-0.1875,-0.96337890625,0.2666015625,2.1875,-5.5625,3.5625
2.85,2.0,1.0,5.0,37.0,2.0,-2.0,2.0,2.0,-0.416748046875,-0.44854736328125,0.66259765625,0.431396484375,-0.208984375,-1.01953125,0.26220703125,4.875,-6.125,1.75
2.855,4.0,-5.0,-61.0,-59.0,-2.0,2.0,0.0,-6.0,-0.4150390625,-0.44769287109375,0.66375732421875,0.43212890625,-0.1318359375,-0.9814453125,0.27392578125,11.375,-4.625,0.25
2.86,3.0,10.0,37.0,37.0,4.0,-2.0,-1.0,3.0,-0.4136962890625,-0.447265625,0.66510009765625,0.43182373046875,-0.150390625,-0.97216796875,0.287109375,-1.0625,-4.0625,3.6875
2.865,-1.0,3.0,-3.0,28.0,0.0,-3.0,1.0,0.0
2.87,0.0,7.0,9.0,-15.0,-2.0,-2.0,1.0,0.0,-0.4134521484375,-0.4473876953125,0.66571044921875,0.43096923828125,-0.14306640625,-1.001953125,0.26806640625,-0.1875,-4.4375,6.125
2.875,-3.0,4.0,5.0,10.0,4.0,2.0,1.0,7.0,-0.41461181640625,-0.44403076171875,0.66607666015625,0.43267822265625,-0.10302734375,-0.9287109375,0.27490234375,6.8125,13.75,6.5625
2.88,-1.0,-28.0,-64.0,4.0,1.0,-9.0,-6.0,-9.0
2.885,-21.0,-3.0,-12.0,-1.0,2.0,3.0,3.0,-13.0,-0.41741943359375,-0.4447021484375,0.66473388671875,0.431396484375,-0.17041015625,-0.9453125,0.32421875,-20.5,9.5625,7.0625
2.89,0.0,-15.0,-12.0,4.0,8.0,17.0,11.0,3.0,-0.424560546875,-0.4432373046875,0.6650390625,0.4254150390625,-0.1767578125,-0.9619140625,0.259765625,4.0,4.9375,10.625
2.895,-9.0,-6.0,-1.0,6.0,-5.0,-7.0,-6.0,-9.0
2.9,-5.0,0.0,4.0,5.0,-1.0,-3.0,-2.0,-3.0,-0.42547607421875,-0.44195556640625,0.665283203125,0.425537109375,-0.19384765625,-0.984375,0.294921875,1.0,6.875,5.75
2.905,-0.4293212890625,-0.44354248046875,0.66339111328125,0.42291259765625,-0.251953125,-0.98486328125,0.2431640625,-26.4375,7.625,7.5
2.91,-5.0,-2.0,6.0,-2.0,-3.0,1.0,-2.0,-22.0,-0.43060302734375,-0.44390869140625,0.66357421875,0.42095947265625,-0.28076171875,-0.943359375,0.2177734375,-8.0,-3.1875,4.625
2.915,29.0,4.0,-22.0,-5.0,-4.0,2.0,1.0,0.0,-0.43023681640625,-0.44342041015625,0.66497802734375,0.41949462890625,-0.2255859375,-1.0283203125,0.18359375,7.5,-8.375,8.6875
2.92,-3.0,5.0,13.0,7.0,5.0,1.0,-3.0,-2.0,-0.428955078125,-0.4422607421875,0.66668701171875,0.41949462890625,-0.134765625,-1.0205078125,0.2041015625,15.4375,-5.875,9.125
2.925,-14.0,3.0,14.0,0.0,0.0,-3.0,0.0,0.0,-0.42852783203125,-0.44091796875,0.6673583984375,0.4202880859375,-0.1328125,-0.962890625,0.26123046875,8.875,3.4375,5.4375
2.93,-23.0,-1.0,-2.0,0.0,2.0,-1.0,0.0,-3.0,-0.42974853515625,-0.44049072265625,0.66729736328125,0.41949462890625,-0.24658203125,-0.93701171875,0.2421875,-3.5,3.125,4.1875
2.935,17.0,0.0,0.0,-6.0,-4.0,-2.0,0.0,7.0,-0.429931640625,-0.44122314453125,0.6680908203125,0.417236328125,-0.275390625,-0.90234375,0.20166015625,-5.1875,-10.5625,3.6875
2.94,19.0,-1.0,-14.0,-6.0,-3.0,-3.0,-3.0,5.0,-0.4290771484375,-0.44305419921875,0.6685791015625,0.4154052734375,-0.22314453125,-0.9677734375,0.20263671875,-5.5625,-14.3125,0.875
2.945,8.0,0.0,7.0,-1.0,1.0,0.0,-3.0,8.0,-0.42559814453125,-0.44537353515625,0.66973876953125,0.41473388671875,-0.19287109375,-0.99462890625,0.2841796875,0.5625,-9.3125,-5.375
2.95,-2.0,-7.0,-17.0,-6.0,2.0,-2.0,-1.0,1.0
2.955,28.0,0.0,7.0,6.0,-1.0,-2.0,1.0,11.0,-0.42437744140625,-0.44561767578125,0.670166015625,0.41497802734375,-0.244140625,-0.93701171875,0.26611328125,1.625,-6.1875,-6.9375
2.96,11.0,0.0,-14.0,0.0,-2.0,-1.0,-1.0,7.0,-0.41925048828125,-0.4468994140625,0.6729736328125,0.4141845703125,-0.2001953125,-0.98583984375,0.2265625,6.875,-19.6875,-3.125
2.965,-10.0,-1.0,3.0,-12.0,-8.0,-2.0,-3.0,-7.0,-0.41546630859375,-0.44696044921875,0.67572021484375,0.41351318359375,-0.166015625,-1.015625,0.2646484375,14.4375,-22.3125,2.0
2.97,-4.0,1.0,-1.0,-9.0,-4.0,-2.0,0.0,-3.0
2.975,-4.0,-2.0,2.0,29.0,9.0,0.0,0.0,-3.0,-0.41046142578125,-0.44537353515625,0.679443359375,0.4141845703125,-0.16455078125,-0.96728515625,0.24853515625,30.8125,-22.75,-1.0
2.98,-20.0,-2.0,0.0,-8.0,-10.0,-5.0,-2.0,-8.0,-0.40521240234375,-0.44342041015625,0.682861328125,0.415771484375,-0.15087890625,-0.85986328125,0.251953125,32.5,-19.5625,-5.6875
2.985,10.0,-19.0,-5.0,-6.0,-1.0,1.0,-1.0,0.0,-0.4022216796875,-0.44415283203125,0.68389892578125,0.4161376953125,-0.1376953125,-0.85107421875,0.19921875,11.4375,-14.9375,-6.5
2.99,1.0,0.0,-32.0,-13.0,-2.0,-2.0,-3.0,-2.0,-0.4000244140625,-0.446533203125,0.68450927734375,0.414794921875,-0.1865234375,-1.001953125,0.23388671875,-1.3125,-19.6875,-4.375
2.995,8.0,4.0,11.0,14.0,4.0,-1.0,2.0,0.0,-0.39306640625,-0.44647216796875,0.68890380859375,0.41424560546875,-0.13916015625,-0.99462890625,0.23828125,23.75,-15.5,-1.0625
3.0,-21.0,-11.0,-3.0,-9.0,-8.0,0.0,1.0,-5.0
3.005,5.0,-2.0,27.0,23.0,3.0,-3.0,-3.0,-5.0,-0.39007568359375,-0.4456787109375,0.6903076171875,0.41552734375,-0.14990234375,-0.92138671875,0.2373046875,20.375,-10.0625,-6.5
3.01,0.0,-14.0,-44.0,-27.0,-8.0,-3.0,-3.0,-1.0,-0.38885498046875,-0.44635009765625,0.69012451171875,0.416259765625,-0.14306640625,-0.857421875,0.24072265625,3.5,-4.5625,-7.25
3.015,12.0,15.0,24.0,5.0,0.0,-1.0,-2.0,-2.0,-0.39019775390625,-0.44921875,0.6884765625,0.41461181640625,-0.1826171875,-0.91552734375,0.27783203125,-22.3125,-2.5,-2.0625
3.02,2.0,-5.0,-35.0,-6.0,0.0,-1.0,0.0,1.0,-0.391845703125,-0.45306396484375,0.686767578125,0.41168212890625,-0.20654296875,-1.01806640625,0.29736328125,-29.375,-6.9375,1.375
3.025,1.0,3.0,2.0,-2.0,-1.0,-1.0,0.0,3.0,-0.3917236328125,-0.456298828125,0.6859130859375,0.40966796875,-0.16015625,-1.04833984375,0.32080078125,-1.0625,-3.5625,-2.0625
3.03,4.0,-1.0,13.0,2.0,2.0,1.0,-2.0,-1.0
3.035,-2.0,-1.0,-2.0,-4.0,0.0,1.0,0.0,-3.0,-0.3900146484375,-0.45556640625,0.68670654296875,0.4107666015625,-0.16748046875,-0.97265625,0.33203125,8.25,-3.25,-5.375
3.04,2.0,6.0,10.0,7.0,1.0,2.0,2.0,0.0,-0.38800048828125,-0.45513916015625,0.68804931640625,0.41094970703125,-0.1650390625,-0.98681640625,0.3271484375,-1.4375,-5.1875,0.75
3.045,-7.0,1.0,-1.0,-6.0,-4.0,-2.0,-2.0,1.0
3.05,0.0,-10.0,-32.0,-10.0,-2.0,0.0,-2.0,0.0,-0.38714599609375,-0.45556640625,0.6884765625,0.41058349609375,-0.142578125,-1.01171875,0.32470703125,-0.6875,-5.75,0.9375
3.055,-2.0,-1.0,8.0,5.0,1.0,-1.0,-1.0,-4.0,-0.38458251953125,-0.4549560546875,0.6898193359375,0.411376953125,-0.158203125,-0.9873046875,0.30224609375,8.4375,-3.875,-3.8125
3.06,2.0,-3.0,3.0,-4.0,4.0,0.0,1.0,0.0
3.065,-1.0,-1.0,3.0,-6.0,0.0,0.0,-2.0,-3.0,-0.38311767578125,-0.45428466796875,0.6904296875,0.4124755859375,-0.14013671875,-0.97705078125,0.3173828125,9.4375,-2.0625,-3.9375
3.07,0.0,-7.0,0.0,5.0,-2.0,0.0,0.0,-1.0,-0.3819580078125,-0.45330810546875,0.6912841796875,0.4132080078125,-0.14208984375,-0.9580078125,0.30615234375,9.875,-1.875,-0.6875
3.075,1.0,-2.0,12.0,1.0,-1.0,1.0,0.0,3.0,-0.3809814453125,-0.45269775390625,0.6920166015625,0.41351318359375,-0.130859375,-0.9453125,0.298828125,7.3125,-2.75,0.5
3.08,-2.0,-2.0,-9.0,-8.0,-3.0,-1.0,-1.0,-2.0,-0.3802490234375,-0.45196533203125,0.6927490234375,0.413818359375,-0.14404296875,-0.94287109375,0.3095703125,6.75,-1.8125,1.0
3.085,1.0,-11.0,44.0,28.0,0.0,-1.0,-1.0,0.0,-0.3798828125,-0.450927734375,0.69354248046875,0.4139404296875,-0.16552734375,-0.95849609375,0.31689453125,6.75,-0.5,2.125
3.09,-3.0,-10.0,-23.0,-34.0,-15.0,-8.0,-5.0,-3.0,-0.37945556640625,-0.45001220703125,0.6942138671875,0.4141845703125,-0.19677734375,-0.970703125,0.3271484375,6.25,-1.1875,-1.0
3.095,-1.0,-1.0,-5.0,5.0,2.0,1.0,-1.0,-3.0,-0.37939453125,-0.449951171875,0.69403076171875,0.4146728515625,-0.1865234375,-0.9716796875,0.2958984375,2.3125,0.8125,-4.375
3.1,-1.0,-2.0,1.0,7.0,1.0,-1.0,0.0,1.0,-0.37811279296875,-0.44989013671875,0.69378662109375,0.41632080078125,-0.15966796875,-0.9521484375,0.29638671875,2.8125,-0.5,-5.875
3.105,0.0,-3.0,14.0,13.0,10.0,-1.0,-3.0,-2.0
3.11,1.0,7.0,-2.0,-9.0,-7.0,-2.0,-1.0,0.0,-0.3759765625,-0.4510498046875,0.6932373046875,0.4178466796875,-0.15087890625,-0.97998046875,0.314453125,1.0,-3.4375,-9.5
3.115,3.0,0.0,-10.0,-20.0,0.0,1.0,1.0,1.0,-0.3741455078125,-0.45111083984375,0.69354248046875,0.41888427734375,-0.138671875,-1.005859375,0.3037109375,9.3125,-5.5,-7.0
3.12,1.0,3.0,-2.0,-1.0,-3.0,-3.0,3.0,2.0
3.125,0.0,-1.0,-9.0,-2.0,-1.0,0.0,0.0,0.0,-0.372314453125,-0.450439453125,0.6942138671875,0.42010498046875,-0.126953125,-1.0009765625,0.310546875,13.0,-3.75,-5.375
3.13,1.0,1.0,-15.0,-1.0,2.0,-1.0,0.0,-1.0,-0.3677978515625,-0.44842529296875,0.69635009765625,0.4227294921875,-0.130859375,-0.9677734375,0.3369140625,11.5625,-6.5,-5.4375
3.135,-3.0,-11.0,-33.0,-40.0,-10.0,-4.0,-2.0,-2.0
3.14,-1.0,-2.0,10.0,44.0,-1.0,-1.0,-1.0,0.0,-0.36566162109375,-0.44769287109375,0.6976318359375,0.42327880859375,-0.13623046875,-0.9892578125,0.35009765625,12.4375,-7.9375,-2.625
3.145,-1.0,4.0,-12.0,5.0,-7.0,-4.0,-3.0,0.0,-0.36370849609375,-0.44647216796875,0.6993408203125,0.4234619140625,-0.14306640625,-1.02001953125,0.365234375,14.625,-8.0625,0.75
3.15,-0.3612060546875,-0.4449462890625,0.70098876953125,0.42437744140625,-0.11572265625,-0.9931640625,0.36669921875,18.0625,-6.875,-1.5625
3.155,-5.0,-1.0,20.0,-23.0,-10.0,-5.0,-2.0,-5.0
3.16,4.0,12.0,30.0,9.0,5.0,5.0,1.0,2.0,-0.35894775390625,-0.44171142578125,0.70330810546875,0.4259033203125,-0.162109375,-0.95263671875,0.3564453125,11.0625,-1.75,-1.25
3.165,8.0,21.0,-5.0,19.0,6.0,2.0,2.0,5.0,-0.3577880859375,-0.44000244140625,0.70458984375,0.426513671875,-0.1357421875,-0.94921875,0.37451171875,13.625,-1.8125,1.0625
3.17,-4.0,-10.0,-10.0,2.0,6.0,0.0,-1.0,-2.0,-0.356689453125,-0.4381103515625,0.705810546875,0.42742919921875,-0.1171875,-0.966796875,0.4013671875,13.6875,0.6875,1.5
3.175,-14.0,-31.0,1.0,-49.0,-28.0,-15.0,-10.0,-8.0,-0.35601806640625,-0.43438720703125,0.7069091796875,0.429931640625,-0.14501953125,-0.90966796875,0.41650390625,10.125,4.8125,-0.125
3.18,8.0,22.0,54.0,74.0,14.0,8.0,5.0,5.0,-0.35650634765625,-0.43389892578125,0.70703125,0.42974853515625,-0.12646484375,-0.96240234375,0.390625,0.3125,2.9375,3.9375
3.185,6.0,24.0,20.0,31.0,9.0,2.0,2.0,3.0,-0.35687255859375,-0.43402099609375,0.70697021484375,0.429443359375,-0.0810546875,-0.9619140625,0.3349609375,5.1875,2.625,3.75
3.19,0.0,-18.0,-36.0,-30.0,-3.0,-3.0,1.0,1.0
3.195,-5.0,21.0,20.0,-18.0,-2.0,0.0,-2.0,0.0,-0.35736083984375,-0.43243408203125,0.70709228515625,0.430419921875,-0.11181640625,-0.89599609375,0.34716796875,8.5,8.4375,1.8125
3.2,4.0,-7.0,-38.0,-25.0,1.0,1.0,-1.0,-2.0,-0.3602294921875,-0.43133544921875,0.70513916015625,0.432373046875,-0.14013671875,-0.92333984375,0.37744140625,-0.875,11.5625,-2.3125
3.205,-12.0,-53.0,-128.0,-62.0,8.0,6.0,1.0,-3.0
3.21,4.0,40.0,73.0,70.0,16.0,8.0,2.0,1.0,-0.360595703125,-0.4298095703125,0.7049560546875,0.433837890625,-0.1328125,-0.9384765625,0.39111328125,6.5625,9.5625,-2.0
3.215,17.0,44.0,7.0,-26.0,7.0,3.0,3.0,7.0,-0.3607177734375,-0.4283447265625,0.70489501953125,0.435302734375,-0.14990234375,-0.90185546875,0.41796875,5.4375,7.875,-3.9375
3.22,-9.0,27.0,25.0,20.0,-48.0,-23.0,-16.0,-14.0,-0.36065673828125,-0.4273681640625,0.70416259765625,0.4375,-0.130859375,-0.8466796875,0.3876953125,-1.375,4.125,-5.5625
3.225,3.0,1.0,-72.0,-42.0,-5.0,2.0,0.0,1.0,-0.36285400390625,-0.42987060546875,0.7017822265625,0.43701171875,-0.12451171875,-0.89013671875,0.34130859375,-21.5,6.375,-3.6875
3.23,-21.0,-53.0,22.0,-32.0,-29.0,-22.0,-10.0,0.0,-0.3687744140625,-0.436279296875,0.6951904296875,0.436279296875,-0.111328125,-0.97802734375,0.3828125,-30.6875,12.1875,-6.9375
3.235,6.0,-7.0,13.0,45.0,19.0,7.0,4.0,6.0
3.24,6.0,-1.0,-61.0,26.0,38.0,17.0,4.0,7.0,-0.371337890625,-0.43780517578125,0.69232177734375,0.4371337890625,-0.109375,-0.9140625,0.404296875,-22.1875,15.5625,-6.125
3.245,2.0,28.0,-27.0,105.0,3.0,4.0,2.0,0.0,-0.381591796875,-0.44720458984375,0.68304443359375,0.43341064453125,-0.1064453125,-0.986328125,0.298828125,-57.75,17.1875,-2.125
3.25,0.0,24.0,89.0,6.0,-24.0,-2.0,1.0,-7.0,-0.38629150390625,-0.45111083984375,0.67803955078125,0.43304443359375,-0.1044921875,-1.048828125,0.32568359375,-40.5625,19.5625,-4.5
3.255,-4.0,-39.0,-46.0,5.0,7.0,2.0,-1.0,-1.0
3.26,-5.0,-5.0,112.0,-15.0,-5.0,1.0,-5.0,-7.0,-0.39398193359375,-0.4541015625,0.6717529296875,0.43280029296875,-0.1455078125,-0.93408203125,0.2705078125,-27.1875,16.0,0.3125
3.265,0.0,24.0,39.0,-39.0,-4.0,1.0,5.0,1.0,-0.39794921875,-0.45654296875,0.6689453125,0.430908203125,-0.1767578125,-1.0146484375,0.27392578125,-30.375,10.0625,3.0625
3.27,-41.0,-94.0,-65.0,-74.0,-46.0,-18.0,-17.0,-21.0
3.275,11.0,24.0,46.0,-1.0,3.0,0.0,1.0,9.0,-0.4002685546875,-0.458251953125,0.66693115234375,0.4300537109375,-0.1337890625,-1.04052734375,0.27490234375,-18.9375,7.0625,1.75
3.28,20.0,36.0,43.0,96.0,53.0,20.0,14.0,12.0,-0.401123046875,-0.45782470703125,0.6661376953125,0.43096923828125,-0.1484375,-0.91552734375,0.2705078125,3.125,2.0625,0.625
3.285,10.0,28.0,47.0,34.0,-6.0,3.0,-1.0,6.0
3.29,-11.0,-49.0,8.0,50.0,7.0,-4.0,-5.0,-8.0,-0.40142822265625,-0.45843505859375,0.66668701171875,0.42919921875,-0.12451171875,-0.96826171875,0.234375,-2.6875,-4.5625,1.6875
3.295,-6.0,-20.0,-84.0,-11.0,-1.0,-9.0,-5.0,3.0,-0.40130615234375,-0.4588623046875,0.6661376953125,0.42962646484375,-0.09375,-1.0087890625,0.27734375,-2.5,1.875,-0.625
3.3,-18.0,-24.0,-55.0,-90.0,-66.0,-23.0,-13.0,-16.0
3.305,-13.0,-28.0,30.0,-20.0,-11.0,-9.0,-7.0,-10.0,-0.40155029296875,-0.45751953125,0.66680908203125,0.42987060546875,-0.20263671875,-0.96142578125,0.26318359375,-1.625,-1.125,-1.375
3.31,20.0,7.0,-35.0,25.0,24.0,17.0,9.0,10.0
3.315,-13.0,-29.0,-27.0,-82.0,-36.0,-13.0,-5.0,-6.0,-0.401611328125,-0.45849609375,0.66644287109375,0.42938232421875,-0.1259765625,-0.98681640625,0.25048828125,-4.875,-2.1875,0.125
3.32,-1.0,-37.0,-43.0,5.0,9.0,0.0,0.0,0.0,-0.40252685546875,-0.4591064453125,0.6656494140625,0.42901611328125,-0.15283203125,-1.0185546875,0.2666015625,-3.875,2.375,0.5
3.325,0.0,13.0,0.0,13.0,2.0,-2.0,-1.0,-1.0
3.33,-18.0,14.0,-12.0,31.0,-6.0,-15.0,-13.0,-19.0,-0.4029541015625,-0.459228515625,0.665283203125,0.4290771484375,-0.13037109375,-0.99560546875,0.26171875,-2.25,2.5625,0.9375
3.335,10.0,32.0,73.0,17.0,24.0,11.0,4.0,6.0,-0.40289306640625,-0.45849609375,0.66583251953125,0.4290771484375,-0.146484375,-0.9482421875,0.2578125,-1.9375,-1.0,0.25
3.34,-7.0,-58.0,-15.0,-60.0,-3.0,0.0,-3.0,-4.0
3.345,5.0,18.0,-30.0,68.0,15.0,4.0,3.0,3.0,-0.40301513671875,-0.4593505859375,0.66534423828125,0.4288330078125,-0.1083984375,-0.99755859375,0.255859375,-4.875,-0.6875,0.9375
3.35,28.0,42.0,-12.0,20.0,37.0,19.0,13.0,22.0,-0.40228271484375,-0.4593505859375,0.6654052734375,0.429443359375,-0.15625,-0.9560546875,0.26904296875,3.625,-1.5,-3.5
3.355,-4.0,-28.0,-37.0,0.0,3.0,1.0,3.0,-1.0,-0.40155029296875,-0.45947265625,0.66595458984375,0.42913818359375,-0.134765625,-0.97705078125,0.24169921875,3.125,-5.125,0.75
3.36,-0.401123046875,-0.4591064453125,0.6668701171875,0.42852783203125,-0.10546875,-0.95703125,0.23779296875,4.6875,-4.125,6.8125
3.365,2.0,3.0,5.0,-74.0,-23.0,-11.0,-6.0,-2.0,-0.4010009765625,-0.45843505859375,0.6676025390625,0.42816162109375,-0.154296875,-0.9580078125,0.26416015625,3.5625,-1.5,3.6875
3.37,-10.0,-17.0,-94.0,-44.0,-10.0,-3.0,-2.0,-8.0,-0.40032958984375,-0.45745849609375,0.66851806640625,0.4283447265625,-0.20166015625,-1.0009765625,0.28662109375,7.1875,-2.75,-1.5625
3.375,-1.0,5.0,28.0,11.0,1.0,2.0,-2.0,1.0,-0.3985595703125,-0.45654296875,0.6700439453125,0.42864990234375,-0.16796875,-1.01513671875,0.2919921875,12.0,-7.625,-1.0625
3.38,-9.0,-17.0,-43.0,-19.0,1.0,0.0,-4.0,-3.0,-0.39697265625,-0.45611572265625,0.67120361328125,0.42877197265625,-0.1123046875,-1.02587890625,0.26171875,10.5625,-6.625,2.0
3.385,-12.0,2.0,5.0,42.0,10.0,3.0,1.0,0.0,-0.3958740234375,-0.4537353515625,0.67291259765625,0.42962646484375,-0.11083984375,-0.9580078125,0.29443359375,17.25,0.6875,5.75
3.39,-6.0,10.0,35.0,-1.0,0.0,2.0,-1.0,-19.0
3.395,-2.0,-8.0,8.0,15.0,1.0,-1.0,-4.0,1.0,-0.3953857421875,-0.45074462890625,0.6748046875,0.43023681640625,-0.1484375,-0.97509765625,0.30126953125,18.25,2.9375,7.625
3.4,-9.0,2.0,-11.0,0.0,2.0,3.0,4.0,-9.0,-0.39508056640625,-0.44866943359375,0.677001953125,0.42919921875,-0.18212890625,-0.9501953125,0.318359375,9.625,-4.125,11.375
3.405,-4.0,6.0,12.0,44.0,9.0,8.0,4.0,-1.0,-0.39422607421875,-0.447265625,0.6798095703125,0.42706298828125,-0.12548828125,-1.0224609375,0.31591796875,-1.75,0.125,10.4375
3.41,-1.0,2.0,26.0,19.0,3.0,6.0,7.0,5.0,-0.39337158203125,-0.44537353515625,0.68194580078125,0.4263916015625,-0.2109375,-0.97705078125,0.30908203125,13.125,-6.125,6.6875
3.415,15.0,-2.0,10.0,13.0,1.0,-9.0,-6.0,-9.0,-0.39031982421875,-0.44140625,0.686279296875,0.4263916015625,-0.22412109375,-0.9658203125,0.32080078125,33.375,-13.3125,7.5625
3.42,-9.0,4.0,-13.0,32.0,8.0,4.0,0.0,-4.0,-0.38720703125,-0.43780517578125,0.69012451171875,0.4267578125,-0.08740234375,-0.93359375,0.31787109375,32.125,-9.5,13.25
3.425,-31.0,-9.0,-7.0,2.0,1.0,-3.0,-3.0,10.0,-0.38763427734375,-0.43646240234375,0.691162109375,0.42608642578125,-0.0927734375,-0.8876953125,0.3427734375,2.6875,2.8125,13.0
3.43,-19.0,-6.0,-69.0,-11.0,-3.0,0.0,-2.0,-6.0,-0.39013671875,-0.43743896484375,0.69012451171875,0.42437744140625,-0.20947265625,-0.9501953125,0.32958984375,-17.125,4.5625,5.75
3.435,13.0,3.0,38.0,5.0,-1.0,-1.0,-2.0,-3.0,-0.39276123046875,-0.4388427734375,0.6895751953125,0.42144775390625,-0.26123046875,-0.955078125,0.31201171875,-20.0625,-0.875,8.25
3.44,6.0,0.0,-14.0,-3.0,-5.0,-3.0,12.0,-1.0,-0.39385986328125,-0.44097900390625,0.68927001953125,0.418701171875,-0.189453125,-1.00244140625,0.2734375,-14.6875,-7.875,7.6875
3.445,31.0,4.0,17.0,1.0,2.0,-7.0,-4.0,26.0,-0.39459228515625,-0.4417724609375,0.68896484375,0.417724609375,-0.14111328125,-1.01220703125,0.30419921875,-6.75,0.0,6.25
3.45,10.0,-4.0,4.0,2.0,0.0,-3.0,2.0,3.0,-0.3958740234375,-0.4415283203125,0.68878173828125,0.41693115234375,-0.16552734375,-0.94384765625,0.3203125,-5.875,4.6875,7.3125
3.455,22.0,-12.0,-7.0,-8.0,-2.0,0.0,-2.0,10.0,-0.40008544921875,-0.44476318359375,0.68621826171875,0.41387939453125,-0.1982421875,-0.91015625,0.26123046875,-17.75,-1.9375,1.625
3.46,-7.0,-5.0,-35.0,-6.0,0.0,0.0,-3.0,-2.0,-0.400634765625,-0.44708251953125,0.685546875,0.411865234375,-0.1708984375,-0.9677734375,0.28515625,-16.8125,-6.625,3.25
3.465,-10.0,-1.0,-4.0,-1.0,-4.0,-9.0,-1.0,-4.0,-0.40045166015625,-0.4486083984375,0.68524169921875,0.410888671875,-0.1279296875,-0.9921875,0.30419921875,-9.3125,-4.875,3.25
3.47,-3.0,-6.0,3.0,4.0,6.0,-1.0,-5.0,-7.0,-0.40106201171875,-0.44879150390625,0.68463134765625,0.41107177734375,-0.1494140625,-0.96533203125,0.2705078125,-2.875,4.4375,1.25
3.475,33.0,-28.0,-5.0,-5.0,-2.0,2.0,1.0,8.0,-0.4022216796875,-0.449462890625,0.6839599609375,0.41033935546875,-0.21875,-0.91552734375,0.248046875,-7.6875,1.5625,-0.125
3.48,-19.0,9.0,23.0,-2.0,-2.0,-1.0,1.0,-3.0,-0.402099609375,-0.4508056640625,0.68389892578125,0.4090576171875,-0.2109375,-0.93896484375,0.23095703125,-5.6875,-7.75,-0.625
3.485,-9.0,-5.0,12.0,-13.0,-3.0,-2.0,-3.0,-4.0,-0.4002685546875,-0.45159912109375,0.6846923828125,0.40863037109375,-0.1630859375,-1.01806640625,0.251953125,4.875,-11.9375,-1.0625
3.49,-11.0,-10.0,-3.0,1.0,0.0,-2.0,1.0,1.0,-0.3975830078125,-0.45123291015625,0.68621826171875,0.4091796875,-0.13623046875,-1.06005859375,0.21875,19.0,-12.0,-0.4375
3.495,13.0,9.0,1.0,-5.0,-6.0,-6.0,-1.0,-3.0,-0.38897705078125,-0.445556640625,0.6942138671875,0.41015625,-0.20947265625,-0.93212890625,0.2578125,15.0625,-16.6875,2.1875
3.5,-9.0,-9.0,-17.0,-21.0,-6.0,-2.0,-3.0,-3.0,-0.38372802734375,-0.44476318359375,0.69769287109375,0.4100341796875,-0.15576171875,-0.97607421875,0.3154296875,14.875,-10.875,-1.5625
3.505,-1.0,-2.0,0.0,2.0,0.0,-4.0,-2.0,-5.0
3.51,0.0,12.0,24.0,4.0,-1.0,0.0,-1.0,-2.0,-0.3814697265625,-0.44317626953125,0.69970703125,0.41046142578125,-0.193359375,-0.931640625,0.35107421875,15.4375,-8.8125,-0.6875
3.515,-14.0,-8.0,-2.0,0.0,-4.0,-2.0,-1.0,-3.0,-0.37860107421875,-0.44378662109375,0.7017822265625,0.408935546875,-0.17578125,-0.9375,0.3505859375,-5.25,-10.25,0.125
3.52,6.0,-3.0,-22.0,-19.0,-10.0,-4.0,-4.0,-2.0
3.525,28.0,21.0,18.0,14.0,3.0,2.0,0.0,4.0,-0.37799072265625,-0.4453125,0.7017822265625,0.40777587890625,-0.16943359375,-0.98876953125,0.3291015625,-6.8125,-8.75,0.0
3.53,10.0,2.0,-5.0,3.0,0.0,-1.0,-2.0,-3.0,-0.37542724609375,-0.44537353515625,0.7032470703125,0.4075927734375,-0.173828125,-0.998046875,0.34375,10.875,-6.4375,-1.1875
3.535,-12.0,-4.0,1.0,-2.0,-3.0,-1.0,-1.0,0.0,-0.3736572265625,-0.4439697265625,0.7047119140625,0.408203125,-0.1767578125,-0.93798828125,0.3671875,12.25,-5.375,-1.25
3.54,-4.0,-12.0,-3.0,6.0,3.0,2.0,0.0,-3.0,-0.372802734375,-0.44384765625,0.70526123046875,0.4080810546875,-0.16845703125,-0.91845703125,0.3583984375,1.3125,-4.1875,-0.75
3.545,-3.0,-7.0,-3.0,-2.0,-1.0,-2.0,-1.0,0.0,-0.372802734375,-0.445068359375,0.7049560546875,0.4073486328125,-0.16162109375,-0.93896484375,0.36181640625,-9.6875,-3.6875,-0.0625
3.55,0.0,2.0,-10.0,-2.0,-4.0,-2.0,-2.0,-2.0,-0.37298583984375,-0.44622802734375,0.70465087890625,0.40643310546875,-0.171875,-0.984375,0.3505859375,-8.3125,-3.5625,0.875
3.555,5.0,3.0,4.0,1.0,-6.0,0.0,0.0,-1.0,-0.37274169921875,-0.44671630859375,0.7047119140625,0.406005859375,-0.16552734375,-1.00439453125,0.35888671875,-2.6875,-3.0,0.8125
3.56,3.0,3.0,3.0,-13.0,-3.0,-2.0,-1.0,1.0,-0.3720703125,-0.44622802734375,0.7052001953125,0.4063720703125,-0.14501953125,-0.98974609375,0.35498046875,4.6875,-0.875,0.625
3.565,4.0,-4.0,-4.0,-2.0,2.0,-1.0,-2.0,-2.0,-0.3714599609375,-0.4451904296875,0.70587158203125,0.40692138671875,-0.15576171875,-0.951171875,0.35107421875,7.375,0.3125,0.75
3.57,0.0,1.0,-11.0,-1.0,-4.0,-3.0,-2.0,1.0,-0.37164306640625,-0.4451904296875,0.70599365234375,0.406494140625,-0.16162109375,-0.94580078125,0.337890625,-5.75,0.125,1.1875
3.575,10.0,11.0,7.0,-1.0,0.0,-1.0,-1.0,1.0,-0.3721923828125,-0.44573974609375,0.70550537109375,0.4061279296875,-0.1630859375,-0.974609375,0.34521484375,-5.75,1.375,1.25
3.58,12.0,0.0,6.0,15.0,3.0,1.0,2.0,7.0,-0.37286376953125,-0.4449462890625,0.70550537109375,0.406494140625,-0.15771484375,-0.97802734375,0.3447265625,2.4375,4.1875,1.875
3.585,-13.0,-2.0,-5.0,-3.0,3.0,4.0,1.0,-5.0
3.59,-4.0,3.0,-10.0,-10.0,-2.0,-2.0,-1.0,0.0,-0.3734130859375,-0.4442138671875,0.70556640625,0.40673828125,-0.1572265625,-0.95654296875,0.3408203125,2.1875,4.5625,3.0
3.595,1.0,0.0,-28.0,-10.0,-6.0,-5.0,-2.0,0.0,-0.373779296875,-0.4434814453125,0.70587158203125,0.40655517578125,-0.17431640625,-0.95654296875,0.349609375,1.4375,2.125,4.0
3.6,-1.0,-8.0,0.0,-8.0,-3.0,-4.0,-3.0,-2.0,-0.3756103515625,-0.44317626953125,0.70562744140625,0.40570068359375,-0.16162109375,-0.95703125,0.32470703125,-4.125,4.1875,4.375
3.605,2.0,4.0,23.0,15.0,1.0,-1.0,-2.0,1.0,-0.3770751953125,-0.44293212890625,0.70538330078125,0.405029296875,-0.1796875,-0.97607421875,0.3125,-2.9375,5.0625,6.8125
3.61,0.0,-7.0,-29.0,-16.0,-6.0,-4.0,-4.0,-1.0,-0.37774658203125,-0.44195556640625,0.7059326171875,0.40460205078125,-0.19091796875,-0.97119140625,0.3115234375,4.6875,2.1875,6.375
3.615,5.0,8.0,38.0,9.0,5.0,3.0,6.0,6.0,-0.37799072265625,-0.44073486328125,0.7066650390625,0.40435791015625,-0.19580078125,-0.9755859375,0.314453125,7.5625,0.875,5.25
3.62,-1.0,-1.0,13.0,-3.0,-2.0,-2.0,-4.0,-2.0,-0.377685546875,-0.43951416015625,0.70745849609375,0.404541015625,-0.18994140625,-0.966796875,0.31494140625,9.6875,0.0,2.5625
3.625,-1.0,-1.0,1.0,-16.0,-6.0,-3.0,-1.0,-2.0,-0.37750244140625,-0.43853759765625,0.70794677734375,0.405029296875,-0.1875,-0.9638671875,0.322265625,8.125,1.3125,0.6875
3.63,-6.0,-11.0,-33.0,-13.0,-7.0,-5.0,-4.0,-5.0,-0.37689208984375,-0.43707275390625,0.708984375,0.40521240234375,-0.208984375,-0.958984375,0.31982421875,11.8125,-1.8125,2.0625
3.635,0.0,12.0,21.0,-2.0,0.0,-5.0,-1.0,0.0,-0.37579345703125,-0.435791015625,0.7105712890625,0.40496826171875,-0.20654296875,-0.96875,0.30615234375,14.3125,-6.4375,3.5
3.64,-0.37481689453125,-0.43524169921875,0.7113037109375,0.40509033203125,-0.1806640625,-0.98046875,0.30029296875,10.6875,-4.625,0.75
3.645,-2.0,-12.0,-45.0,-2.0,-4.0,-2.0,-3.0,-2.0
3.65,-2.0,3.0,21.0,-7.0,-4.0,0.0,-1.0,-2.0,-0.370849609375,-0.4307861328125,0.71466064453125,0.40753173828125,-0.18603515625,-0.92626953125,0.34521484375,24.5625,-2.125,-0.75
3.655,-14.0,-3.0,2.0,-1.0,3.0,1.0,-3.0,0.0,-0.36895751953125,-0.42755126953125,0.7169189453125,0.40875244140625,-0.17919921875,-0.89453125,0.39892578125,22.9375,-1.3125,2.5
3.66,1.0,4.0,14.0,1.0,-3.0,-1.0,1.0,-1.0,-0.36761474609375,-0.425537109375,0.71820068359375,0.4097900390625,-0.1640625,-0.89111328125,0.4072265625,13.5625,-0.25,0.0625
3.665,-2.0,7.0,46.0,-30.0,-10.0,-4.0,2.0,1.0,-0.36846923828125,-0.4256591796875,0.71832275390625,0.40875244140625,-0.19091796875,-0.912109375,0.39208984375,-8.6875,-0.4375,1.75
3.67,3.0,6.0,-4.0,-2.0,3.0,1.0,4.0,0.0,-0.36859130859375,-0.4256591796875,0.7183837890625,0.4085693359375,-0.19873046875,-0.93359375,0.3876953125,-1.4375,-0.1875,0.25
3.675,6.0,-8.0,-8.0,25.0,0.0,2.0,-1.0,12.0,-0.36907958984375,-0.426513671875,0.71759033203125,0.40850830078125,-0.18701171875,-1.009765625,0.37939453125,-5.5,1.625,-1.4375
3.68,6.0,19.0,52.0,-5.0,4.0,0.0,3.0,4.0,-0.36651611328125,-0.42279052734375,0.71905517578125,0.41217041015625,-0.162109375,-0.9267578125,0.3818359375,20.875,2.8125,-4.0
3.685,-10.0,-6.0,-32.0,-18.0,-15.0,-8.0,-7.0,-9.0,-0.36541748046875,-0.42120361328125,0.719482421875,0.41400146484375,-0.1376953125,-0.88623046875,0.41064453125,11.3125,4.3125,-3.75
3.69,-1.0,-3.0,-30.0,-12.0,-4.0,-2.0,-4.0,-4.0,-0.36566162109375,-0.4210205078125,0.718994140625,0.41485595703125,-0.16259765625,-0.88134765625,0.3876953125,-0.75,5.0625,-3.0625
3.695,-3.0,7.0,88.0,31.0,-8.0,-8.0,-5.0,-5.0,-0.3665771484375,-0.421875,0.7181396484375,0.4146728515625,-0.22265625,-0.92626953125,0.3671875,-7.1875,1.625,-3.75
3.7,0.0,-12.0,2.0,-27.0,0.0,0.0,0.0,0.0,-0.36639404296875,-0.42340087890625,0.7171630859375,0.41485595703125,-0.2080078125,-0.96435546875,0.33984375,-4.4375,-3.25,-8.0625
3.705,2.0,-12.0,5.0,64.0,14.0,4.0,2.0,2.0,-0.3653564453125,-0.42462158203125,0.71563720703125,0.41717529296875,-0.130859375,-0.9580078125,0.3525390625,1.0,2.5625,-15.375
3.71,-19.0,-43.0,-52.0,-82.0,-23.0,-14.0,-6.0,-9.0,-0.364501953125,-0.42486572265625,0.71417236328125,0.420166015625,-0.16162109375,-0.9375,0.35546875,5.8125,6.0,-18.0625
3.715,-14.0,15.0,-30.0,23.0,8.0,-5.0,-9.0,-12.0,-0.36297607421875,-0.42413330078125,0.714111328125,0.42236328125,-0.21875,-0.91259765625,0.39013671875,10.0625,-0.4375,-15.0625
3.72,-14.0,-50.0,-86.0,-67.0,-13.0,-5.0,-4.0,-6.0
3.725,0.0,19.0,45.0,83.0,5.0,-6.0,-4.0,-4.0,-0.36114501953125,-0.42498779296875,0.71405029296875,0.42315673828125,-0.1806640625,-0.837890625,0.390625,-0.6875,-8.0625,-12.25
3.73,-9.0,-57.0,0.0,-84.0,-17.0,-6.0,-5.0,-4.0,-0.36029052734375,-0.42791748046875,0.71270751953125,0.4232177734375,-0.1318359375,-0.869140625,0.36474609375,-13.625,-7.3125,-10.75
3.735,2.0,-5.0,40.0,-16.0,-18.0,0.0,3.0,4.0,-0.3612060546875,-0.43133544921875,0.71014404296875,0.42327880859375,-0.138671875,-0.9716796875,0.37939453125,-21.6875,1.3125,-10.0
3.74,-5.0,-30.0,24.0,79.0,25.0,4.0,4.0,-1.0,-0.36151123046875,-0.4326171875,0.7083740234375,0.42462158203125,-0.13037109375,-0.9658203125,0.4052734375,-9.0,5.6875,-10.5
3.745,13.0,66.0,47.0,-30.0,-16.0,-2.0,2.0,7.0,-0.361083984375,-0.432373046875,0.70758056640625,0.42657470703125,-0.10791015625,-0.9228515625,0.40771484375,1.3125,7.0,-8.1875
3.75,-2.0,4.0,46.0,-12.0,10.0,-2.0,-2.0,-3.0,-0.36199951171875,-0.43316650390625,0.7064208984375,0.4268798828125,-0.14453125,-0.86669921875,0.37255859375,-9.625,4.75,-4.125
3.755,7.0,35.0,-27.0,22.0,11.0,4.0,1.0,1.0,-0.3641357421875,-0.43609619140625,0.70379638671875,0.42645263671875,-0.12060546875,-0.904296875,0.34912109375,-24.875,6.1875,-4.5
3.76,-5.0,20.0,78.0,-6.0,-26.0,-10.0,-8.0,-8.0,-0.36865234375,-0.44146728515625,0.6973876953125,0.4276123046875,-0.12744140625,-0.9892578125,0.3681640625,-18.875,13.3125,-9.3125
3.765,3.0,13.0,50.0,-48.0,-19.0,-1.0,4.0,7.0,-0.3721923828125,-0.4447021484375,0.6922607421875,0.42950439453125,-0.13427734375,-0.93115234375,0.32861328125,-21.5625,10.1875,-7.5
3.77,-19.0,3.0,-98.0,-48.0,-32.0,-25.0,-20.0,-18.0
3.775,3.0,9.0,13.0,117.0,43.0,16.0,2.0,3.0,-0.37542724609375,-0.4478759765625,0.68865966796875,0.42919921875,-0.1083984375,-0.98583984375,0.34423828125,-30.8125,12.6875,-4.0625
3.78,5.0,-1.0,26.0,-6.0,34.0,13.0,3.0,3.0,-0.37811279296875,-0.44976806640625,0.68585205078125,0.4293212890625,-0.126953125,-0.98779296875,0.3427734375,-22.4375,12.625,-3.9375
3.785,-27.0,-5.0,14.0,31.0,-16.0,-11.0,-10.0,-15.0,-0.3802490234375,-0.45025634765625,0.68402099609375,0.42987060546875,-0.17138671875,-0.99462890625,0.3486328125,-12.375,12.3125,-4.375
3.79,1.0,-8.0,0.0,-4.0,-12.0,0.0,3.0,1.0,-0.3819580078125,-0.4510498046875,0.6824951171875,0.42999267578125,-0.1591796875,-0.96923828125,0.32373046875,-12.125,7.875,-3.0
3.795,-12.0,-12.0,44.0,-38.0,10.0,-9.0,-13.0,-12.0,-0.38287353515625,-0.45184326171875,0.68121337890625,0.43035888671875,-0.111328125,-1.00341796875,0.28759765625,-5.8125,5.5625,-1.9375
3.8,-30.0,-51.0,-25.0,27.0,-8.0,-13.0,-16.0,-20.0,-0.3839111328125,-0.4521484375,0.68017578125,0.4306640625,-0.11474609375,-0.939453125,0.2919921875,-5.6875,6.75,-0.6875
3.805,15.0,36.0,80.0,91.0,-4.0,1.0,6.0,7.0,-0.38494873046875,-0.4521484375,0.67962646484375,0.4306640625,-0.18994140625,-0.9814453125,0.2841796875,-2.75,4.125,-1.8125
3.81,3.0,53.0,51.0,-19.0,-1.0,1.0,1.0,4.0,-0.38525390625,-0.45233154296875,0.67919921875,0.430908203125,-0.13720703125,-0.99609375,0.275390625,0.25,1.8125,-1.6875
3.815,15.0,-6.0,-7.0,-43.0,19.0,18.0,10.0,11.0,-0.3856201171875,-0.452392578125,0.67889404296875,0.4310302734375,-0.13916015625,-0.98291015625,0.28125,-0.3125,2.0625,-0.4375
3.82,-14.0,-70.0,-66.0,-59.0,-16.0,-10.0,-4.0,-8.0,-0.38592529296875,-0.45233154296875,0.67913818359375,0.43035888671875,-0.15625,-1.001953125,0.29296875,1.625,-1.5,0.125
3.825,-1.0,-3.0,-17.0,-13.0,-1.0,-3.0,0.0,0.0,-0.3858642578125,-0.45245361328125,0.6793212890625,0.42999267578125,-0.154296875,-0.99951171875,0.28173828125,1.375,-2.4375,0.5625
3.83,-11.0,-12.0,11.0,-77.0,-17.0,-6.0,-3.0,-4.0
3.835,10.0,35.0,69.0,-38.0,-18.0,-4.0,2.0,4.0,-0.38580322265625,-0.45196533203125,0.6798095703125,0.4298095703125,-0.15771484375,-0.9599609375,0.294921875,2.8125,-1.0,1.5
3.84,-14.0,-3.0,74.0,4.0,-10.0,-8.0,-11.0,-12.0,-0.3868408203125,-0.4532470703125,0.6790771484375,0.4287109375,-0.16552734375,-0.97900390625,0.29736328125,-7.125,-0.75,-0.625
3.845,6.0,49.0,72.0,83.0,12.0,-1.0,2.0,0.0
3.85,-13.0,-49.0,-91.0,4.0,-28.0,-14.0,-7.0,-8.0,-0.386962890625,-0.453857421875,0.67877197265625,0.4283447265625,-0.12744140625,-0.97802734375,0.3017578125,-4.6875,-0.9375,0.6875
3.855,9.0,15.0,-2.0,-45.0,-25.0,-5.0,-1.0,4.0,-0.38726806640625,-0.4541015625,0.67877197265625,0.42779541015625,-0.14599609375,-0.96044921875,0.29541015625,-1.3125,0.5,0.9375
3.86,3.0,-15.0,-69.0,-68.0,-10.0,-1.0,1.0,2.0,-0.38726806640625,-0.4541015625,0.67889404296875,0.42767333984375,-0.12744140625,-0.9658203125,0.29345703125,0.125,-0.4375,1.875
